"Time (s)","Linear Acceleration x (m/s^2)","Linear Acceleration y (m/s^2)","Linear Acceleration z (m/s^2)"
4.001562000E-3,-2.377999872E-1,1.553999931E-1,7.497000098E-1
2.400156200E-2,-3.416000009E-1,1.932999939E-1,6.570999622E-1
4.400781200E-2,1.421999931E-1,-3.639999777E-2,2.144999951E-1
7.400156200E-2,7.620999813E-1,-4.025000036E-1,5.319999903E-2
9.400468700E-2,9.966999888E-1,-7.217999697E-1,3.033999801E-1
1.240015620E-1,4.844999909E-1,-7.757999897E-1,2.451999933E-1
1.440031250E-1,-3.790000081E-2,-3.034999967E-1,7.559999824E-2
1.740000000E-1,-6.725999713E-1,4.381999969E-1,-5.214999914E-1
1.940000000E-1,-4.258999825E-1,2.450999916E-1,-1.351199985E0
2.140000000E-1,-3.019999899E-2,8.229999989E-2,-1.403499961E0
2.340078120E-1,1.711999923E-1,4.230000079E-2,-1.460299969E0
2.640000000E-1,3.879999742E-2,3.127000034E-1,-1.538800001E0
2.840000000E-1,-4.163999856E-1,5.702999830E-1,-6.966999769E-1
3.040000000E-1,-3.217999935E-1,6.748999953E-1,-8.770999908E-1
3.240000000E-1,4.429999739E-2,1.987999976E-1,-7.102999687E-1
3.440015620E-1,-7.899999619E-3,7.689999789E-2,-7.577999830E-1
3.740000000E-1,-2.212999910E-1,6.793999672E-1,-6.735999584E-1
3.940000000E-1,-2.586999834E-1,9.180999994E-1,-2.458999902E-1
4.140000000E-1,-4.889999703E-2,6.766999960E-1,-2.680000067E-1
4.340000000E-1,1.642999947E-1,5.202000141E-1,-1.208999977E-1
4.540000000E-1,3.951999843E-1,5.568000078E-1,-5.749999732E-2
4.740000000E-1,5.146999955E-1,5.374000072E-1,1.718999892E-1
4.940000000E-1,2.872000039E-1,9.141999483E-1,6.456999779E-1
5.140015620E-1,-3.817999959E-1,1.463699937E0,1.041399956E0
5.340046870E-1,1.852999926E-1,1.058899999E0,9.526999593E-1
5.640000000E-1,1.204399943E0,-3.529999778E-2,1.678799987E0
5.840000000E-1,1.373600006E0,-3.892999887E-1,1.367100000E0
6.040000000E-1,1.113799930E0,-3.055000007E-1,1.293900013E0
6.240000000E-1,5.145999789E-1,-4.919999838E-2,7.928000093E-1
6.440000000E-1,6.603999734E-1,1.899999939E-2,1.352199912E0
6.640000000E-1,1.329899907E0,-2.669999897E-1,8.489999771E-1
6.840000000E-1,2.552799940E0,-1.165400028E0,2.113000005E-1
7.040000000E-1,2.221699953E0,-1.517099977E0,3.299999982E-2
7.240000000E-1,9.131999612E-1,-8.770999908E-1,1.307999939E-1
7.440000000E-1,2.328999937E-1,-1.799999923E-1,3.317999840E-1
7.640000000E-1,2.745999992E-1,1.319999993E-2,-1.160999984E-1
7.840000000E-1,4.151999950E-1,1.019999944E-2,-1.073899984E0
8.040000000E-1,-8.339999616E-2,1.759999990E-1,-1.553900003E0
8.240000000E-1,-5.997999907E-1,1.836999953E-1,-1.583599925E0
8.440000000E-1,-8.399999738E-1,2.357999980E-1,-1.777699947E0
8.640015620E-1,-7.850999832E-1,3.350999951E-1,-1.367499948E0
8.940000000E-1,-5.248000026E-1,2.248999923E-1,-6.413999796E-1
9.140015620E-1,-2.441999912E-1,1.532000005E-1,-9.539999813E-2
9.340015620E-1,-1.823000014E-1,1.843999922E-1,3.066000044E-1
9.640015620E-1,-2.565999925E-1,4.629999995E-1,2.635000050E-1
9.940000000E-1,-3.288999796E-1,8.841999769E-1,-1.827999949E-1
1.014001562E0,-3.190999925E-1,1.147400022E0,-3.159999847E-2
1.034050000E0,-9.399999678E-2,1.184800029E0,5.862999558E-1
1.064000000E0,2.967999876E-1,4.034999907E-1,7.304999828E-1
1.084001562E0,8.689999580E-2,4.201000035E-1,4.825999737E-1
1.114000000E0,-2.818000019E-1,6.334999800E-1,9.860999584E-1
1.134001562E0,-2.321999967E-1,6.820999980E-1,1.023599982E0
1.154001562E0,-7.100000046E-3,3.182999790E-1,1.311299920E0
1.184000000E0,2.964999974E-1,-4.738999903E-1,6.232999563E-1
1.204000000E0,-3.429999948E-2,-7.608000040E-1,2.380999923E-1
1.224001562E0,-2.928999960E-1,-9.178999662E-1,3.849999979E-2
1.244001562E0,-1.371999979E-1,-1.121399999E0,1.860000007E-2
1.264001562E0,2.311999947E-1,-1.361500025E0,-1.641999930E-1
1.284001562E0,3.317999840E-1,-1.442999959E0,-4.459999800E-1
1.304001562E0,1.799999923E-1,-1.274500012E0,-5.641999841E-1
1.334000000E0,-5.700000003E-2,-8.743999600E-1,-5.586999655E-1
1.354001562E0,-1.981000006E-1,-6.276999712E-1,-6.877999902E-1
1.384000000E0,-2.913999856E-1,-3.076999784E-1,-1.115599990E0
1.404000000E0,-3.114999831E-1,-2.017999887E-1,-1.396899939E0
1.424000000E0,-3.115999997E-1,1.403999925E-1,-1.511699915E0
1.444000000E0,-3.809999824E-1,4.703999758E-1,-1.457799911E0
1.464000000E0,-4.099999964E-1,6.117999554E-1,-1.112200022E0
1.484000000E0,-2.940999866E-1,4.813999832E-1,-1.084900022E0
1.504000000E0,-2.703999877E-1,3.840999901E-1,-1.272799969E0
1.524000000E0,-5.141000152E-1,3.482999802E-1,-1.117699981E0
1.544000000E0,-8.996999860E-1,6.295999885E-1,-1.224300027E0
1.564000000E0,-1.072299957E0,1.063099980E0,-9.082999825E-1
1.584000000E0,-4.339999855E-1,7.069000006E-1,-4.072999954E-1
1.604001562E0,1.701999903E-1,3.218999803E-1,4.668999910E-1
1.634000000E0,4.341999888E-1,3.744999766E-1,2.119299889E0
1.654000000E0,8.576999903E-1,-2.899999917E-2,2.251399994E0
1.674000000E0,7.580999732E-1,4.509999976E-2,1.218799949E0
1.694000000E0,9.795999527E-1,4.609999955E-1,1.999899983E0
1.714000000E0,1.831999898E0,-7.800000161E-2,1.077799916E0
1.734000000E0,2.212599993E0,-5.284000039E-1,2.518800020E0
1.754000000E0,1.479799986E0,-9.273999929E-1,2.678699970E0
1.774000000E0,1.374699950E0,-1.188399911E0,-9.489999712E-2
1.794000000E0,1.193099976E0,-6.426999569E-1,-1.894699931E0
1.814000000E0,1.273800015E0,5.799999833E-2,-1.999300003E0
1.834000000E0,1.231999993E0,3.070999980E-1,3.152899981E0
1.854000000E0,1.205799937E0,-4.362999797E-1,-3.664999902E-1
1.874000000E0,1.410099983E0,-6.570000052E-1,-1.840199947E0
1.894000000E0,6.890999675E-1,-7.787999511E-1,-6.254000068E-1
1.914000000E0,5.900000036E-2,-7.367999554E-1,-1.038499951E0
1.934000000E0,-2.105999887E-1,-9.223999977E-1,-1.126500010E0
1.954000000E0,-7.634999752E-1,-5.454999804E-1,-1.276199937E0
1.974001562E0,-7.042999864E-1,4.684999883E-1,-1.413200021E0
2.004000000E0,-4.821999967E-1,7.978999615E-1,-1.249499917E0
2.024000000E0,-5.321999788E-1,5.802999735E-1,-2.531999946E-1
2.044000000E0,-5.313000083E-1,3.148999810E-1,4.468999803E-1
2.064000000E0,-6.976000071E-1,3.486999869E-1,6.493999958E-1
2.084000000E0,-1.157799959E0,3.055000007E-1,4.819999933E-1
2.104000000E0,-1.148800015E0,3.007999957E-1,1.188999936E-1
2.124000000E0,-9.753999710E-1,4.427999854E-1,1.560000032E-1
2.144000000E0,-5.712999701E-1,5.819000006E-1,-4.479999840E-2
2.164000000E0,-1.313000023E-1,5.688999891E-1,-1.026000008E-1
2.184000000E0,-2.012999952E-1,7.574999928E-1,5.089999735E-2
2.204000000E0,-6.243999600E-1,9.684000015E-1,4.960999787E-1
2.224000000E0,-7.807999849E-1,1.041599989E0,1.136799932E0
2.244000000E0,-5.047999620E-1,8.298999667E-1,1.623399973E0
2.264000000E0,4.230999947E-1,5.880999565E-1,1.909799933E0
2.284000000E0,8.603000045E-1,-4.654999971E-1,1.695500016E0
2.304000000E0,1.957999915E-1,-9.161999822E-1,1.509099960E0
2.324000000E0,-5.285999775E-1,-9.955999851E-1,9.011999965E-1
2.344000000E0,-3.858000040E-1,-1.181299925E0,6.976999640E-1
2.364000000E0,5.939999968E-2,-1.321900010E0,1.313000023E-1
2.384000000E0,4.413999915E-1,-1.570299983E0,3.847000003E-1
2.404000000E0,6.100999713E-1,-1.804600000E0,8.789999485E-1
2.424000000E0,6.362000108E-1,-1.402300000E0,5.162000060E-1
2.444000000E0,4.648999870E-1,-9.616999626E-1,-2.692999840E-1
2.464000000E0,2.759000063E-1,-7.076999545E-1,-9.440999627E-1
2.484000000E0,1.030000020E-2,-3.856999874E-1,-1.612399936E0
2.504000000E0,-9.669999778E-2,-8.039999753E-2,-1.851499915E0
2.524000000E0,-5.900000036E-2,5.999999703E-4,-2.082399845E0
2.544000000E0,-5.649999902E-2,8.329999447E-2,-2.232899904E0
2.564000000E0,-7.979999483E-2,2.445999980E-1,-1.579699993E0
2.584000000E0,2.049999870E-2,4.725999832E-1,-6.768000126E-1
2.604000000E0,2.003999949E-1,5.422999859E-1,-5.731999874E-1
2.624000000E0,1.576000005E-1,5.507999659E-1,-5.435000062E-1
2.644000000E0,-2.789999843E-1,7.080000043E-1,-6.250999570E-1
2.664000000E0,-4.236999750E-1,8.003000021E-1,-6.455000043E-1
2.684000000E0,-1.629000008E-1,7.806999683E-1,-2.622999847E-1
2.704000000E0,1.445000023E-1,5.855000019E-1,3.143999875E-1
2.724000000E0,2.753999829E-1,2.983999848E-1,5.483999848E-1
2.744000000E0,2.318999916E-1,-7.400000002E-3,6.040999889E-1
2.764000000E0,-2.789999843E-1,2.601000071E-1,4.120999873E-1
2.784000000E0,-4.111999869E-1,8.633999825E-1,6.848999858E-1
2.804000000E0,4.787999988E-1,9.866999984E-1,1.621699929E0
2.824000000E0,1.684099913E0,3.035999835E-1,2.800199986E0
2.844000000E0,2.038699865E0,-1.204399943E0,2.894099951E0
2.864000000E0,1.202299953E0,-1.869899988E0,2.000699997E0
2.884000000E0,6.261000037E-1,-1.118399978E0,1.606699944E0
2.904000000E0,3.893999755E-1,-1.165999994E-1,2.495800018E0
2.924000000E0,1.287899971E0,-1.071999967E-1,3.181000054E-1
2.944000000E0,2.249399900E0,-6.373999715E-1,-9.776999950E-1
2.964000000E0,1.662799954E0,-6.956999898E-1,-1.334200025E0
2.984000000E0,8.016999960E-1,-6.561999917E-1,-1.452399969E0
3.004000000E0,-2.197999954E-1,-6.737999916E-1,-1.260200024E0
3.024000000E0,-6.284999847E-1,-5.015999675E-1,-1.275699973E0
3.044000000E0,-8.989999890E-1,-2.533999979E-1,-1.595499992E0
3.064000000E0,-1.003099918E0,-6.279999763E-2,-2.177199841E0
3.084000000E0,-1.063400030E0,-1.572999954E-1,-2.593099833E0
3.104000000E0,-1.103199959E0,-7.149999589E-2,-2.978999853E0
3.124000000E0,-1.165400028E0,1.600999981E-1,-2.536599874E0
3.144000000E0,-1.197199941E0,2.136999965E-1,-1.458299994E0
3.164000000E0,-1.154099941E0,4.329999983E-1,-7.267999649E-1
3.184000000E0,-1.127300024E0,4.371999800E-1,-4.314000010E-1
3.204000000E0,-8.473999500E-1,3.358999789E-1,-9.799999744E-2
3.224000000E0,-3.722999990E-1,5.200000014E-3,5.385999680E-1
3.244000000E0,-7.769999653E-2,-4.194999933E-1,1.772499919E0
3.264000000E0,-1.780999899E-1,1.160999984E-1,1.989399910E0
3.284000000E0,-5.959999561E-1,1.206499934E0,2.495699883E0
3.304000000E0,-8.944999576E-1,1.301699996E0,1.681999922E0
3.324000000E0,-5.040999651E-1,9.272999763E-1,7.793999910E-1
3.344000000E0,-8.592999578E-1,1.255599976E0,1.356299996E0
3.364000000E0,-1.309700012E0,1.000100017E0,1.779299974E0
3.384000000E0,-9.605999589E-1,5.170999765E-1,1.968699932E0
3.404000000E0,-3.457999825E-1,-5.645999908E-1,2.471499920E0
3.424000000E0,-3.747999966E-1,-9.440000057E-1,2.095200062E0
3.444000000E0,-4.266999960E-1,-7.378000021E-1,2.279099941E0
3.464000000E0,-2.615000010E-1,-5.331000090E-1,2.190799952E0
3.484000000E0,2.802999914E-1,-8.879999518E-1,2.235499859E0
3.504000000E0,9.519000053E-1,-1.279899955E0,5.600000024E-1
3.524000000E0,7.954999804E-1,-1.117299914E0,-4.891999960E-1
3.544000000E0,2.324999869E-1,-6.735000014E-1,-1.078699946E0
3.564000000E0,1.336999983E-1,-5.052999854E-1,-1.718999982E0
3.584000000E0,1.290999949E-1,-4.101999998E-1,-2.381500006E0
3.604000000E0,1.328999996E-1,-2.732999921E-1,-2.886199951E0
3.624000000E0,9.169999510E-2,-2.575999796E-1,-2.840699911E0
3.644000000E0,1.539999992E-1,-1.983999908E-1,-2.162600040E0
3.664000000E0,1.499999911E-1,1.093999967E-1,-1.222599983E0
3.684000000E0,2.131000012E-1,7.551999688E-1,-1.221499920E0
3.704000000E0,5.004999638E-1,5.703999996E-1,-6.456999779E-1
3.724007812E0,4.211999774E-1,4.999999655E-4,-3.969999850E-1
3.754000000E0,-1.331000030E-1,6.920000166E-2,-3.265999854E-1
3.774000000E0,-1.342999935E-1,3.152999878E-1,-3.068999946E-1
3.794000000E0,2.493999898E-1,1.240999997E-1,4.300999939E-1
3.814000000E0,8.172000051E-1,1.124999970E-1,8.179000020E-1
3.834000000E0,1.094699979E0,-6.015999913E-1,2.390799999E0
3.854000000E0,9.027000070E-1,-5.760999918E-1,1.628999949E0
3.874000000E0,3.206999898E-1,1.027699947E0,1.038599968E0
3.894000000E0,2.999999821E-1,1.352199912E0,2.031199932E0
3.914000000E0,1.049499989E0,4.741999805E-1,2.293599844E0
3.934000000E0,1.707599998E0,-1.350999951E0,2.223000050E0
3.954000000E0,1.517199993E0,-2.052299976E0,5.421000123E-1
3.974000000E0,1.005399942E0,-7.057999969E-1,-4.156000018E-1
3.994000000E0,-2.202999890E-1,3.893999755E-1,-1.224099994E0
4.014000000E0,4.925999939E-1,3.193999827E-1,-1.724900007E0
4.034000000E0,2.541599989E0,-7.196999788E-1,-1.891599894E0
4.054000000E0,1.919399977E0,-9.274999499E-1,-6.101999879E-1
4.074000000E0,1.798999906E0,-9.092999697E-1,-4.169999957E-1
4.094000000E0,1.354399920E0,-3.317999840E-1,-1.267599940E0
4.114000000E0,1.535499930E0,1.342999935E-1,-3.085299969E0
4.134001562E0,1.536999941E0,1.042999998E-1,-2.632900000E0
4.154001562E0,2.254999876E-1,3.501999974E-1,-1.444000006E0
4.184000000E0,-4.050999880E-1,-3.722999990E-1,-2.069700003E0
4.204001562E0,-3.182999790E-1,5.411999822E-1,-2.111299992E0
4.234000000E0,-7.937999964E-1,2.620999813E-1,-2.429499865E0
4.254000000E0,-2.963199854E0,8.719999790E-1,-1.894699931E0
4.274001562E0,-1.052899957E0,-1.079999935E-2,-7.843999863E-1
4.304000000E0,-1.962999940E0,1.085299969E0,1.270999908E0
4.324000000E0,-1.935699940E0,-5.689999834E-2,3.868499994E0
4.344000000E0,-3.080099821E0,-5.424999595E-1,4.762399673E0
4.364000000E0,-3.166100025E0,3.941999972E-1,3.751999855E0
4.384000000E0,-2.208600044E0,4.335999787E-1,2.579299927E0
4.404000000E0,-1.904299974E0,7.827999592E-1,1.275300026E0
4.424000000E0,-8.601999879E-1,1.345999986E-1,7.842999697E-1
4.444000000E0,-2.078199863E0,-1.252000034E-1,-1.629000008E-1
4.464000000E0,-5.798999667E-1,-6.922000051E-1,-7.545999885E-1
4.484000000E0,-7.993999720E-1,-2.480999976E-1,1.171000004E-1
4.504000000E0,-2.184999883E-1,-7.001000047E-1,7.351999879E-1
4.524007812E0,-2.996999919E-1,-1.300699949E0,1.457599998E0
4.554000000E0,3.549999744E-2,-2.359400034E0,2.338199854E0
4.574003125E0,4.959999919E-1,-1.510499954E0,1.916799903E0
4.604000000E0,9.890999794E-1,9.999999747E-5,5.866000056E-1
4.624000000E0,1.096000001E-1,6.855999827E-1,-1.806299925E0
4.644000000E0,1.319999933E0,1.012400031E0,-1.098999977E-1
4.664000000E0,2.407399893E0,1.104200006E0,-2.012199879E0
4.684000000E0,4.267099857E0,-1.035699964E0,-1.562999964E0
4.704000000E0,4.307399750E0,-2.070999891E-1,-2.657500029E0
4.724000000E0,4.706999779E0,-9.784999490E-1,-1.276999950E0
4.744000000E0,3.690799952E0,-5.529999733E-1,-1.818099976E0
4.764010937E0,-6.997999549E-1,1.190500021E0,-7.220000029E-2
4.794000000E0,-2.093299866E0,2.555099964E0,9.569999576E-2
4.814000000E0,3.674999774E-1,-5.396000147E-1,-1.070400000E0
4.834000000E0,2.203999907E-1,-1.478299975E0,-1.835999966E0
4.854000000E0,2.385299921E0,-1.895399928E0,-8.211999536E-1
4.874000000E0,1.953199983E0,-1.453499913E0,-2.387199879E0
4.894000000E0,1.304899931E0,-1.945799947E0,4.750999808E-1
4.914003125E0,-4.328999817E-1,3.392999768E-1,1.932500005E0
4.944000000E0,8.950999975E-1,-3.625999987E-1,2.654500008E0
4.964001562E0,-6.620000005E-1,-1.394799948E0,1.354599953E0
4.994000000E0,-1.836799979E0,-2.623399973E0,-1.011399984E0
5.014000000E0,-2.921999991E-1,-2.314100027E0,-5.192999840E-1
5.034000000E0,1.388999939E0,-4.053400040E0,-1.892899990E0
5.054001562E0,2.062500000E0,-4.240799904E0,-1.485999942E0
5.084000000E0,2.498600006E0,-3.781099796E0,-2.682099819E0
5.104000000E0,2.476699829E0,-3.399099827E0,-2.467700005E0
5.124001562E0,1.575399995E0,-1.860499978E0,-1.740299940E0
5.154000000E0,1.024999991E-1,-1.320500016E0,-1.868899941E0
5.174000000E0,-2.861899853E0,1.014199972E0,-1.957999915E-1
5.194000000E0,-1.695899963E0,-6.879999489E-2,3.199999928E-1
5.214001562E0,1.036999971E-1,-1.385100007E0,2.093999982E-1
5.234001562E0,-4.930999875E-1,-2.636800051E0,-4.508999884E-1
5.264004687E0,-1.503000021E0,1.027599931E0,3.314199924E0
5.294000000E0,-2.167599916E0,2.855599880E0,5.331599712E0
5.314001562E0,-6.958000064E-1,1.894499898E0,4.015199661E0
5.344000000E0,-6.762999892E-1,1.933599949E0,4.010900021E0
5.364000000E0,-1.808999926E-1,2.133100033E0,3.913800001E0
5.384000000E0,-5.339999795E-1,1.207700014E0,3.480099916E0
5.404000000E0,-8.497999907E-1,6.017999649E-1,3.408299923E0
5.424000000E0,-1.346799970E0,8.028999567E-1,2.370100021E0
5.444000000E0,-6.058999896E-1,7.917999625E-1,1.906899929E0
5.464000000E0,2.062999904E-1,3.694999814E-1,1.486099958E0
5.484000000E0,3.103999794E-1,-2.061000019E-1,1.010999978E-1
5.504000000E0,-1.038999915E0,-4.662999809E-1,-2.640999854E-1
5.524000000E0,-1.669999957E0,-3.290999830E-1,-9.396999478E-1
5.544000000E0,-7.003999949E-1,7.238000035E-1,-1.991999894E-1
5.564000000E0,1.932999939E-1,1.684999913E-1,4.373999834E-1
5.584000000E0,-4.574999809E-1,-1.747699976E0,1.521499991E0
5.604000000E0,-2.165299892E0,-1.834399939E0,7.235999703E-1
5.624000000E0,-3.346499920E0,1.252000034E-1,2.078000009E-1
5.644000000E0,-2.035300016E0,8.046999574E-1,1.196499944E0
5.664000000E0,-1.297899961E0,-1.414999962E-1,3.893999755E-1
5.684000000E0,-1.123199940E0,1.334699988E0,-7.910999656E-1
5.704000000E0,9.036999941E-1,1.880499959E0,-4.851000011E-1
5.724000000E0,1.343899965E0,7.985999584E-1,-4.226999879E-1
5.744000000E0,1.909199953E0,1.414799929E0,-1.555400014E0
5.764000000E0,3.897300005E0,1.951299906E0,-1.128000021E0
5.784000000E0,2.239300013E0,1.830699921E0,1.990599990E0
5.804000000E0,2.621000051E0,7.691999674E-1,1.092000008E-1
5.824000000E0,2.830799818E0,-1.550699949E0,-1.654099941E0
5.844000000E0,2.293799877E0,-3.508599997E0,-2.651000023E-1
5.864000000E0,2.950700045E0,-2.768100023E0,-3.559999913E-2
5.884000000E0,2.335099936E0,-1.721699953E0,2.035999894E-1
5.904000000E0,1.853799939E0,-1.431299925E0,2.231600046E0
5.924000000E0,4.716099739E0,-5.607899666E0,1.208500028E0
5.944000000E0,-1.562899947E0,-6.125499725E0,-1.744300008E0
5.964000000E0,-3.919000030E-1,-7.273900032E0,-6.352999806E-1
5.984000000E0,9.256999493E-1,-8.244299889E0,1.091899991E0
6.004000000E0,-1.921599984E0,-5.992499828E0,7.723999619E-1
6.024000000E0,-1.623199940E0,-4.306499958E0,5.756999850E-1
6.044000000E0,-9.935999513E-1,-2.479899883E0,1.268000007E-1
6.064000000E0,-1.578199983E0,4.991999865E-1,-9.672999978E-1
6.084001562E0,-9.067999721E-1,8.819999695E-1,1.022699952E0
6.114000000E0,-1.189399958E0,3.165999949E-1,2.837999821E0
6.134001562E0,-2.257699966E0,-6.379999965E-2,2.593400002E0
6.164000000E0,-2.026399851E0,-4.211999774E-1,4.257999957E-1
6.184000000E0,-8.840999603E-1,-3.149999976E-1,-1.041399956E0
6.204000000E0,-7.623999715E-1,2.226199865E0,-1.941699982E0
6.224001562E0,-8.133999705E-1,4.186100006E0,-2.279799938E0
6.254000000E0,-2.264199972E0,7.234899998E0,-2.858099937E0
6.274000000E0,-1.677599907E0,3.930399895E0,2.890999913E-1
6.294000000E0,-7.750000060E-2,5.129600048E0,-3.091999888E-1
6.314000000E0,3.732999861E-1,4.305599689E0,-1.338099957E0
6.334000000E0,-2.187599897E0,4.252500057E0,-1.419299960E0
6.354000000E0,-6.121000051E-1,6.176999807E-1,-3.263499975E0
6.374000000E0,-1.907299995E0,1.139999986E0,-2.870399952E0
6.394000000E0,-1.638199925E0,2.589400053E0,-1.224099994E0
6.414000000E0,-3.368599892E0,4.952899933E0,3.261999786E-1
6.434000000E0,-3.164899826E0,1.885399938E0,2.018800020E0
6.454000000E0,-5.169699669E0,2.846899986E0,1.585600019E0
6.474000000E0,-4.732999802E0,2.681099892E0,7.475999594E-1
6.494000000E0,-4.734499931E0,1.361599922E0,1.390999913E0
6.514000000E0,-5.311100006E0,6.602999568E-1,1.400399923E0
6.534000000E0,-5.296499729E0,7.623999715E-1,6.456999779E-1
6.554000000E0,-5.051599979E0,1.300999999E0,2.568999827E-1
6.574000000E0,-4.871299744E0,1.738399982E0,6.631999612E-1
6.594000000E0,-5.215199947E0,9.221999645E-1,2.622400045E0
6.614000000E0,-5.519099712E0,-3.245999813E-1,4.146399975E0
6.634000000E0,-6.362999916E0,-1.644299984E0,3.402099848E0
6.654000000E0,-5.869599819E0,-1.226099968E0,1.195699930E0
6.674000000E0,-5.302700043E0,-2.342200041E0,1.924099922E0
6.694000000E0,-4.308799744E0,-2.551499844E0,4.409999847E-1
6.714000000E0,-3.559799910E0,-2.978799820E0,-2.666499853E0
6.734001562E0,-3.845099926E0,-2.541100025E0,-1.016700029E0
6.764000000E0,-1.449899912E0,-4.001399994E0,1.390699983E0
6.784000000E0,6.099999696E-2,-5.439899921E0,7.734999657E-1
6.804000000E0,2.789999917E-2,-6.146199703E0,-1.384099960E0
6.824000000E0,1.274599910E0,-9.503099442E0,-3.319999874E-1
6.844000000E0,1.536000013E0,-1.081719971E1,-1.270699978E0
6.864000000E0,1.119300008E0,-1.140740013E1,-1.918899894E0
6.884000000E0,7.574999928E-1,-1.083909988E1,-2.697099924E0
6.904000000E0,4.579999745E-1,-1.099749947E1,-8.421999812E-1
6.924000000E0,-1.417500019E0,-1.155109978E1,-7.224999666E-1
6.944000000E0,-1.464200020E0,-1.191009998E1,-1.208899975E0
6.964000000E0,-2.085000038E0,-1.204879951E1,-1.768799901E0
6.984000000E0,-3.498499870E0,-1.048519993E1,-1.488199949E0
7.004000000E0,-5.029799938E0,-6.661900043E0,-3.296000063E-1
7.024003125E0,-5.276000023E0,-2.339900017E0,1.306199908E0
7.054000000E0,-4.906199932E0,6.117300034E0,4.011300087E0
7.074000000E0,-3.102499962E0,1.157749939E1,5.961699963E0
7.094000000E0,-1.054999977E-1,1.179859924E1,6.028999805E0
7.114000000E0,2.297499895E0,9.446399689E0,7.374799728E0
7.134000000E0,5.196399689E0,6.568199635E0,7.834799767E0
7.154000000E0,6.932999611E0,3.685599804E0,7.631399632E0
7.174000000E0,8.694299698E0,1.362800002E0,5.612400055E0
7.194000000E0,6.857899666E0,8.838999867E-1,4.774499893E0
7.214000000E0,3.869199991E0,-4.234999657E0,3.500799894E0
7.234000000E0,3.937799931E0,-9.774199486E0,2.471699953E0
7.254000000E0,3.081599951E0,-1.009949970E1,-2.445600033E0
7.274000000E0,-9.254999757E-1,-4.727099895E0,1.432600021E0
7.294000000E0,5.740799904E0,-2.978099823E0,6.101699829E0
7.314000000E0,6.619699955E0,-8.210299492E0,8.330000043E-1
7.334000000E0,4.286999702E0,-7.244400024E0,-2.351000011E-1
7.354000000E0,-9.073999524E-1,-4.726999760E0,-1.936399937E0
7.374000000E0,1.426999927E0,-2.773999929E0,1.824999928E0
7.394000000E0,1.733500004E0,-1.434700012E0,3.486199856E0
7.414000000E0,-1.568199992E0,-1.364799976E0,3.932199955E0
7.434000000E0,-1.814999938E0,-1.276099920E0,7.649999857E-2
7.454000000E0,-1.230799913E0,2.317999840E0,8.836999536E-1
7.474000000E0,-1.746699929E0,3.926599979E0,4.359000027E-1
7.494000000E0,-1.113199949E0,5.151799679E0,7.028999925E-1
7.514000000E0,1.663599968E0,3.802599907E0,-3.120999932E-1
7.534000000E0,-2.074399948E0,4.947199821E0,1.187699914E0
7.554000000E0,7.285999656E-1,2.167099953E0,9.070999622E-1
7.574000000E0,1.430699944E0,-4.400999844E-1,1.109469986E1
7.594000000E0,8.109999895E-1,-3.055999875E-1,4.442800045E0
7.614000000E0,-2.277999878E0,-6.313999891E-1,5.787999630E-1
7.634000000E0,-3.974200010E0,9.316999912E-1,7.188000083E-1
7.654000000E0,-5.469899654E0,5.727999806E-1,1.899599910E0
7.674000000E0,-2.642400026E0,-4.394999743E-1,6.423999667E-1
7.694000000E0,-1.350000024E0,2.811599970E0,1.174999997E-1
7.714000000E0,-2.437299967E0,4.192999840E0,-2.216399908E0
7.734001562E0,-7.532399654E0,9.349699974E0,2.420099974E0
7.764000000E0,-2.752999961E-1,2.362900019E0,2.004799843E0
7.784000000E0,8.778399467E0,-9.300700188E0,-5.769799709E0
7.804000000E0,6.014800072E0,-3.112999797E-1,-2.692199945E0
7.824000000E0,5.260600090E0,6.943599701E0,-1.964999914E0
7.844000000E0,2.206799984E0,7.319399834E0,-2.817099810E0
7.864000000E0,4.085000038E0,1.166000009E0,-4.611299992E0
7.884000000E0,3.057600021E0,-1.183300018E0,-7.784999609E-1
7.904000000E0,2.663599968E0,1.315599918E0,1.736799955E0
7.924000000E0,3.236999989E0,1.248000026E0,2.141299963E0
7.944000000E0,-6.679999828E-1,3.524000049E-1,-3.484200001E0
7.964000000E0,-5.580299854E0,2.371599913E0,8.709999919E-2
7.984000000E0,-4.438000023E-1,2.587999821E0,6.147399902E0
8.004000000E0,1.042500019E0,-6.353999972E-1,6.293200016E0
8.024000000E0,-3.704699993E0,4.974999726E-1,2.974799871E0
8.044000000E0,-3.822199821E0,-5.970000029E-1,2.664099932E0
8.064000000E0,1.378499985E0,-1.303399920E0,5.727200031E0
8.084004687E0,-8.272999525E-1,9.228400230E0,6.990399837E0
8.114000000E0,-6.054599762E0,3.147199869E0,-1.097499967E0
8.134004687E0,-2.891999960E0,-4.079100132E0,-1.553099990E0
8.164001562E0,-5.442899704E0,-9.025899887E0,-6.280600071E0
8.184003125E0,-1.443649960E1,3.039000034E-1,-2.383299828E0
8.214000000E0,-2.213099957E0,-9.044199944E0,-4.165299892E0
8.234001562E0,-4.892099857E0,-7.437500000E0,-1.960699916E0
8.264000000E0,-1.099799991E0,-2.131399870E0,4.075099945E0
8.284000000E0,3.827099800E0,-2.732699871E0,6.838500023E0
8.304000000E0,5.060400009E0,-3.722100019E0,1.986999989E0
8.324004687E0,3.336199999E0,-2.401000023E0,-1.421899915E0
8.354000000E0,-1.779099941E0,-3.257699966E0,-5.708000064E-1
8.374000000E0,-1.551899910E0,-4.117199898E0,-1.089800000E0
8.394000000E0,7.559999824E-1,-1.812500000E0,-3.610999882E-1
8.414000000E0,2.090399981E0,-5.700000003E-2,9.054999948E-1
8.434000000E0,5.038799763E0,5.859000087E-1,3.981499910E0
8.454000000E0,4.490299702E0,-5.776999593E-1,4.793499947E0
8.474000000E0,1.031800032E0,8.173999786E-1,1.000599980E0
8.494000000E0,-1.800999939E-1,7.099999785E-1,-2.035399914E0
8.514000000E0,-2.383199930E0,2.383399963E0,-1.810699940E0
8.534000000E0,-1.743699908E0,5.997900009E0,1.243999958E0
8.554000000E0,-1.553599954E0,7.525799751E0,2.515100002E0
8.574004687E0,-1.937899947E0,3.838699818E0,2.442699909E0
8.604000000E0,-1.755999923E0,1.718699932E0,1.406999946E0
8.624006250E0,-1.631599903E0,1.699899912E0,7.412999868E-1
8.654000000E0,-3.911199808E0,-4.694999754E-1,-1.617900014E0
8.674000000E0,-2.859799862E0,-2.224900007E0,-1.214599967E0
8.694000000E0,-2.103899956E0,-5.836400032E0,-3.138799906E0
8.714000000E0,-1.601999998E0,-6.076600075E0,-2.572099924E0
8.734000000E0,-1.635999978E-1,-6.227499962E0,4.207799911E0
8.754000000E0,1.045499921E0,-6.213399887E0,1.780200005E0
8.774000000E0,4.589999840E-2,-5.485399723E0,-3.551999927E-1
8.794000000E0,-1.270900011E0,-1.730299950E0,-5.227999687E-1
8.814000000E0,7.032999992E-1,-7.744999528E-1,-1.659099936E0
8.834000000E0,2.704200029E0,-3.642999887E0,-4.239599705E0
8.854000000E0,-4.477999806E-1,1.422999948E-1,-2.312799931E0
8.874000000E0,-9.972999692E-1,3.034899950E0,-3.415699959E0
8.894000000E0,2.027499914E0,4.389499664E0,-4.038499832E0
8.914000000E0,2.889699936E0,3.474599838E0,-6.955800056E0
8.934000000E0,1.594200015E0,1.787899971E0,-4.117199898E0
8.954000000E0,2.818500042E0,5.109099865E0,7.044999599E-1
8.974000000E0,1.183300018E0,3.281699896E0,3.815099955E0
8.994000000E0,-6.814999580E-1,3.316699982E0,3.506099939E0
9.014000000E0,-1.472999901E-1,2.144999981E0,4.039899826E0
9.034000000E0,-6.651999950E-1,2.049599886E0,4.314700127E0
9.054000000E0,-5.419999957E-1,2.708099842E0,8.659999967E-1
9.074000000E0,8.989999443E-2,1.507900000E0,1.552099943E0
9.094000000E0,-9.497999549E-1,2.638200045E0,8.204999566E-1
9.114000000E0,-1.674899936E0,3.510099888E0,-2.661499977E0
9.134043750E0,6.371999979E-1,2.299700022E0,-6.319399834E0
9.164000000E0,-1.353099942E0,-6.542999744E-1,-6.242099762E0
9.184000000E0,-2.847999930E-1,-5.521699905E0,-5.118400097E0
9.204000000E0,9.419999719E-1,-3.339499950E0,-6.947799683E0
9.224000000E0,9.285999537E-1,-4.755199909E0,-7.008199692E0
9.244000000E0,1.519400001E0,-5.365599632E0,-6.165899754E0
9.264000000E0,8.581999540E-1,-5.116399765E0,5.894700050E0
9.284000000E0,-2.607199907E0,-3.240000010E0,-1.019299984E0
9.304000000E0,-5.994799614E0,-9.803199768E0,6.312799931E0
9.324000000E0,-2.264899969E0,-1.148119926E1,8.449999690E-1
9.344000000E0,2.812399864E0,-5.860099792E0,3.146399975E0
9.364000000E0,2.934199810E0,-1.800799966E0,-3.519199848E0
9.384000000E0,1.512899995E0,2.998399973E0,-3.843299866E0
9.404000000E0,1.457499981E0,5.048999786E0,-1.314399958E0
9.424000000E0,1.835099936E0,5.854300022E0,1.018999964E-1
9.444000000E0,1.242200017E0,5.653500080E0,1.997699976E0
9.464000000E0,-1.009999961E-1,4.635399818E0,3.636600018E0
9.484000000E0,4.429999888E-1,-2.651599884E0,5.640899658E0
9.504000000E0,-3.880100012E0,-9.959999472E-2,8.833799362E0
9.524000000E0,-4.780799866E0,-1.095299959E0,4.647099972E0
9.544000000E0,-4.670399666E0,-2.730599880E0,7.446699619E0
9.564000000E0,-4.305099964E0,-7.590999603E-1,5.481100082E0
9.584000000E0,-3.069200039E0,-1.168900013E0,1.347999930E0
9.604000000E0,-1.584800005E0,-1.782999992E0,-2.376099825E0
9.624000000E0,1.554999948E-1,-2.526799917E0,-3.861099958E0
9.644000000E0,9.567999840E-1,-3.465699911E0,-4.370599747E0
9.664000000E0,-3.853999972E-1,-2.982499838E0,-4.409599781E0
9.684000000E0,-1.510999918E0,-3.036799908E0,-5.476299763E0
9.704000000E0,-2.284399986E0,-2.340199947E0,-7.119499683E0
9.724000000E0,-9.919999838E-1,-2.269500017E0,-6.986899853E0
9.744000000E0,1.718999892E-1,-4.111000001E-1,-4.646199703E0
9.764000000E0,1.761699915E0,5.496999621E-1,-1.011500001E0
9.784000000E0,2.672399998E0,1.664699912E0,-2.990999818E-1
9.804000000E0,3.557600021E0,1.090099931E0,7.874000072E-1
9.824000000E0,4.016200066E0,-1.609999873E-2,2.165499926E0
9.844000000E0,4.012300014E0,-3.581999838E-1,3.471699953E0
9.864000000E0,3.814499855E0,-2.656999826E-1,3.214200020E0
9.884000000E0,3.093299866E0,-4.640999734E-1,1.720999956E0
9.904000000E0,3.006599903E0,-1.064800024E0,6.111999750E-1
9.924000000E0,2.322900057E0,-1.686999917E0,4.293999970E-1
9.944000000E0,7.861999869E-1,-1.671700001E0,5.195999742E-1
9.964000000E0,-1.182799935E0,-8.019999862E-1,1.268199921E0
9.984000000E0,-2.769399881E0,5.839999765E-2,1.792299986E0
1.000400000E1,-4.368000031E0,1.191999912E0,1.372699976E0
1.002400000E1,-4.686999798E0,1.436200023E0,9.103999734E-1
1.004400000E1,-4.240200043E0,1.516299963E0,1.158100009E0
1.006400000E1,-3.554799795E0,7.752999663E-1,2.664199829E0
1.008400000E1,-4.983699799E0,-3.638999760E-1,3.332899809E0
1.010400000E1,-3.783199787E0,-1.393999934E0,7.555999756E-1
1.012400000E1,-9.212999940E-1,-2.745100021E0,-2.617699862E0
1.014400000E1,9.594999552E-1,-3.080699921E0,-7.079799652E0
1.016400000E1,6.029999852E-1,-3.012300014E0,-9.302199364E0
1.018400000E1,-7.532999516E-1,-3.844499826E0,-7.477799892E0
1.020400000E1,-1.943199992E0,-3.621399879E0,-3.489499807E0
1.022400000E1,-1.569800019E0,-3.536499977E0,-1.571999937E-1
1.024400000E1,-6.518999934E-1,-3.201699972E0,-1.338699937E0
1.026400000E1,1.174199939E0,-2.986500025E0,-1.322399974E0
1.028400000E1,1.396799922E0,-1.955299973E0,-1.986999959E-1
1.030400000E1,2.840699911E0,1.678999960E-1,-1.337499976E0
1.032400000E1,3.745599985E0,1.343599916E0,-2.264999866E0
1.034400000E1,4.919899940E0,2.426100016E0,-2.513799906E0
1.036400000E1,5.511600018E0,2.396499872E0,-3.822699785E0
1.038400000E1,5.705599785E0,1.275099993E0,-4.599199772E0
1.040400000E1,5.553899765E0,1.512999982E-1,-4.443500042E0
1.042400000E1,4.968599796E0,-3.333999813E-1,-2.525399923E0
1.044400000E1,3.767699957E0,-4.511999786E-1,-1.009299994E0
1.046400000E1,1.338799953E0,-7.418999672E-1,1.139199972E0
1.048400000E1,-2.769099951E0,-1.645399928E0,4.806200027E0
1.050400000E1,-7.062799931E0,-1.545499921E0,7.381399632E0
1.052400156E1,-8.096199989E0,-1.955599904E0,7.159299850E0
1.055400000E1,-1.554600000E0,-4.457999766E-1,7.381099701E0
1.057400000E1,-7.281999588E-1,-6.499999762E-2,4.411499977E0
1.059400000E1,-1.434599996E0,-1.697699904E0,-8.310999870E-1
1.061400000E1,-1.095399976E0,-2.901899815E0,-5.320899963E0
1.063400000E1,-8.506000042E-1,-4.658999920E0,-6.467400074E0
1.065400000E1,-1.449999928E0,-7.122399807E0,-5.033499718E0
1.067400000E1,-1.215199947E0,-5.548699856E0,-5.044799805E0
1.069400000E1,-1.501799941E0,-1.889299989E0,-5.540599823E0
1.071400000E1,-6.554999948E-1,5.960999727E-1,-5.833999634E0
1.073400156E1,8.886999488E-1,1.496299982E0,-4.637199879E0
1.076400000E1,2.729499817E0,2.102599859E0,-1.415499926E0
1.078400000E1,4.046299934E0,2.468999863E0,-2.491400003E0
1.080400000E1,4.698400021E0,1.934399962E0,-1.310999990E0
1.082400000E1,4.977200031E0,1.102999926E0,1.473399997E0
1.084400000E1,4.661600113E0,3.583999872E-1,3.215799809E0
1.086400156E1,3.242100000E0,-1.869999990E-2,3.277199984E0
1.089400000E1,1.925699949E0,-4.600000009E-2,5.839999765E-2
1.091400000E1,2.254299879E0,6.403999925E-1,-5.744999647E-1
1.093400000E1,1.685599923E0,1.375499964E0,7.414999604E-1
1.095400000E1,2.659999952E-2,1.939099908E0,2.278300047E0
1.097400000E1,-2.095399857E0,2.532799959E0,3.089900017E0
1.099400000E1,-3.807600021E0,2.579499960E0,3.401199818E0
1.101400000E1,-4.672999859E0,2.321099997E0,2.822199821E0
1.103400000E1,-4.407899857E0,2.173399925E0,1.908999920E0
1.105400000E1,-2.837499857E0,1.818599939E0,2.726899862E0
1.107400000E1,-2.853899956E0,1.494300008E0,4.638999939E0
1.109400000E1,-4.756400108E0,1.273100019E0,3.221599817E0
1.111400000E1,-3.109699965E0,5.511000156E-1,3.590999842E-1
1.113400000E1,9.879999608E-2,-8.761999607E-1,-1.924699903E0
1.115400156E1,1.202600002E0,-1.393599987E0,-6.867599964E0
1.118400000E1,-1.905699968E0,-2.381000042E0,-6.381399632E0
1.120400000E1,-3.235800028E0,-2.502499819E0,-3.314199924E0
1.122400000E1,-3.026099920E0,-2.452899933E0,4.444999993E-1
1.124400000E1,-1.067099929E0,-1.729200006E0,3.443000019E-1
1.126400000E1,5.192999840E-1,-1.592599988E0,1.652899981E0
1.128400000E1,1.108399987E0,-3.683999777E-1,-7.678999901E-1
1.130400000E1,2.388900042E0,1.223699927E0,-2.004799843E0
1.132400000E1,3.844899893E0,2.549000025E0,-8.707999587E-1
1.134400000E1,4.985499859E0,3.005499840E0,-9.016999602E-1
1.136400000E1,5.177599907E0,2.927799940E0,-2.914000034E0
1.138400000E1,5.459300041E0,2.266899824E0,-4.043799877E0
1.140400000E1,5.893199921E0,9.684999585E-1,-4.382199764E0
1.142400312E1,5.534199715E0,9.339999408E-2,-3.001799822E0
1.145400000E1,3.190099955E0,-1.587999910E-1,-1.013100028E0
1.147400156E1,-1.078999937E-1,-8.478999734E-1,1.964800000E0
1.150400000E1,-6.731400013E0,-2.674399853E0,5.392499924E0
1.152400000E1,-9.158399582E0,-3.871699810E0,7.805899620E0
1.154400000E1,-5.826699734E0,-1.538999915E0,1.027989960E1
1.156400000E1,-6.080999970E-1,7.499999553E-2,7.952899933E0
1.158400000E1,-2.738899946E0,-7.105000019E-1,3.735499859E0
1.160400000E1,-2.501799822E0,-1.677699924E0,-1.411099911E0
1.162400000E1,-5.570999980E-1,-2.806200027E0,-4.985199928E0
1.164400000E1,4.161999822E-1,-3.977699995E0,-3.876699924E0
1.166400156E1,6.869999766E-1,-4.464799881E0,-5.134999752E0
1.169400000E1,-1.609499931E0,-5.112000108E-1,-6.928999901E0
1.171400000E1,-2.152299881E0,1.696200013E0,-6.942299843E0
1.173400156E1,-1.230099916E0,2.503099918E0,-4.735300064E0
1.176400000E1,2.105999947E0,2.615000010E0,-1.637300014E0
1.178400000E1,3.372900009E0,3.179199934E0,-1.426699996E0
1.180400000E1,4.599100113E0,2.901499987E0,-9.247999787E-1
1.182400000E1,5.109799862E0,1.677999973E0,1.516999960E0
1.184400000E1,4.531599998E0,1.013399959E0,3.299099922E0
1.186400000E1,3.587899923E0,2.447999865E-1,3.296199799E0
1.188400000E1,2.825599909E0,-4.473999739E-1,1.657099962E0
1.190400000E1,2.668599844E0,-9.379999638E-1,-5.240000039E-2
1.192400000E1,2.690599918E0,-5.476999879E-1,-8.269999921E-2
1.194400000E1,1.858899951E0,5.507000089E-1,9.728999734E-1
1.196400000E1,-1.081999987E-1,1.499400020E0,2.068199873E0
1.198400000E1,-2.216500044E0,1.982899904E0,3.402499914E0
1.200400000E1,-4.181999683E0,1.877099991E0,4.288199902E0
1.202400000E1,-5.337999821E0,2.238699913E0,3.676199913E0
1.204400000E1,-4.274099827E0,3.038499832E0,1.773799896E0
1.206400000E1,-2.349099874E0,3.372399807E0,2.724200010E0
1.208400000E1,-4.108500004E0,3.435099840E0,4.041500092E0
1.210400000E1,-5.168099880E0,2.209499836E0,2.620299816E0
1.212400000E1,-2.345999956E0,6.380999684E-1,1.352999955E-1
1.214400000E1,5.496000051E-1,-5.212999582E-1,-2.987999916E0
1.216400000E1,5.324999690E-1,-1.384999990E0,-6.288699627E0
1.218400000E1,-1.557500005E0,-2.885099888E0,-4.950900078E0
1.220400000E1,-3.484299898E0,-3.527199984E0,-2.988600016E0
1.222400000E1,-3.845499992E0,-2.766199827E0,-6.657999754E-1
1.224400000E1,-1.043699980E0,-2.084300041E0,7.829999924E-2
1.226400000E1,1.810899973E0,-1.791199923E0,5.203999877E-1
1.228400000E1,2.677000046E0,-1.053099990E0,6.730999947E-1
1.230400000E1,3.072899818E0,-1.532000005E-1,-1.115499973E0
1.232400000E1,3.582499981E0,1.326699972E0,-1.980999947E0
1.234400000E1,3.794499874E0,2.354099989E0,-6.250999570E-1
1.236400000E1,3.852599859E0,2.990399837E0,-6.712999940E-1
1.238400000E1,3.997699976E0,2.636999846E0,-2.478899956E0
1.240400000E1,4.566400051E0,1.733299971E0,-3.152400017E0
1.242400156E1,5.184599876E0,4.425999820E-1,-3.003899813E0
1.245400000E1,4.044099808E0,2.159999870E-2,-2.000499964E0
1.247400000E1,1.561299920E0,4.675999880E-1,2.311999947E-1
1.249400000E1,-2.313199997E0,3.946999907E-1,4.321000099E0
1.251400000E1,-5.874899864E0,-3.665999770E-1,5.888299942E0
1.253400000E1,-7.977599621E0,-1.780299902E0,7.361199856E0
1.255400000E1,-4.462599754E0,-3.390000015E-2,1.009289932E1
1.257400000E1,3.263999820E-1,2.019700050E0,8.449600220E0
1.259400000E1,-2.274799824E0,2.439000010E-1,2.777199984E0
1.261400000E1,-2.253000021E0,-2.049099922E0,-2.280999899E0
1.263400000E1,-6.262999773E-1,-2.839699984E0,-5.156499863E0
1.265400000E1,4.825999737E-1,-4.240999699E0,-5.563600063E0
1.267400000E1,2.074999958E-1,-6.469099998E0,-4.738299847E0
1.269400000E1,-2.205100060E0,-3.994799852E0,-6.567599773E0
1.271400000E1,-2.491400003E0,-8.779999614E-2,-5.405200005E0
1.273400156E1,-1.005100012E0,1.304499984E0,-4.578299999E0
1.276400000E1,1.446699977E0,2.109599829E0,-2.531800032E0
1.278400000E1,2.244899988E0,3.008999825E0,-1.713899970E0
1.280400000E1,3.830899954E0,2.947000027E0,-3.495999873E-1
1.282400000E1,4.168299675E0,1.885499954E0,1.909399986E0
1.284400000E1,3.845299959E0,1.050799966E0,3.540099859E0
1.286400000E1,3.139699936E0,-1.943999976E-1,3.186299801E0
1.288400000E1,2.407299995E0,-9.246000051E-1,1.750999928E0
1.290400000E1,2.529399872E0,-1.154399991E0,-1.068999991E-1
1.292400000E1,3.086499929E0,-5.376999974E-1,5.022000074E-1
1.294400000E1,2.392199993E0,6.355999708E-1,1.492200017E0
1.296400000E1,5.710999966E-1,1.613999963E0,2.033900023E0
1.298400000E1,-1.674600005E0,2.269199848E0,2.808300018E0
1.300400000E1,-3.074100018E0,2.550199986E0,3.040299892E0
1.302400000E1,-3.694700003E0,2.184799910E0,3.411999941E0
1.304400000E1,-4.349499702E0,2.588199854E0,3.605000019E0
1.306400000E1,-3.052799940E0,2.960999966E0,3.163399935E0
1.308400000E1,-4.135600090E0,2.721099854E0,4.137499809E0
1.310400000E1,-5.786299706E0,1.856499910E0,3.411099911E0
1.312400000E1,-2.936499834E0,4.779999852E-1,5.327000022E-1
1.314400000E1,4.247999787E-1,-5.568000078E-1,-3.062500000E0
1.316400000E1,9.964999557E-1,-1.508099914E0,-5.940700054E0
1.318400000E1,-9.300999641E-1,-3.814099789E0,-4.321899891E0
1.320400000E1,-4.026499748E0,-4.377599716E0,-2.990700006E0
1.322400000E1,-4.309999943E0,-3.945699930E0,-1.429700017E0
1.324400000E1,-1.356599927E0,-3.050799847E0,-5.636000037E-1
1.326400000E1,2.287999868E0,-2.295300007E0,-5.440999866E-1
1.328400000E1,3.190799952E0,-1.113600016E0,-6.218999624E-1
1.330400000E1,3.323899984E0,-9.149999917E-2,-1.062099934E0
1.332400000E1,3.749199867E0,1.436299920E0,-1.204100013E0
1.334400000E1,4.065199852E0,3.092700005E0,-5.205999613E-1
1.336400000E1,3.794199944E0,4.285399914E0,-7.942000031E-1
1.338400000E1,3.789999962E0,3.799899817E0,-2.478799820E0
1.340400000E1,4.478300095E0,2.092399836E0,-2.092000008E0
1.342400000E1,4.550799847E0,8.750999570E-1,-1.271399975E0
1.344400000E1,4.027999878E0,-2.809999883E-2,-1.025300026E0
1.346400000E1,2.069399834E0,1.011999995E-1,4.680999815E-1
1.348400000E1,-1.250899911E0,-8.909999579E-2,3.871599913E0
1.350400000E1,-5.069900036E0,-1.518700004E0,6.424699783E0
1.352400000E1,-7.865499973E0,-2.377099991E0,5.940799713E0
1.354400000E1,-5.380699635E0,-1.548900008E0,9.301199913E0
1.356400000E1,-8.227999806E-1,1.449100018E0,8.345700264E0
1.358400000E1,-1.974399924E0,1.310500026E0,4.086599827E0
1.360400000E1,-3.095899820E0,-5.009999871E-1,-2.724999785E-1
1.362400000E1,-1.399500012E0,-1.868799925E0,-4.736899853E0
1.364400000E1,-2.538999915E-1,-3.935099840E0,-4.672199726E0
1.366400000E1,1.914999932E-1,-5.670599937E0,-4.375699997E0
1.368400000E1,-7.258999944E-1,-3.196899891E0,-5.697099686E0
1.370400000E1,-1.875399947E0,5.689999834E-2,-6.302700043E0
1.372400000E1,-1.379799962E0,1.276000023E0,-6.014400005E0
1.374400000E1,1.781999916E-1,2.156800032E0,-4.668200016E0
1.376400000E1,1.046999931E0,2.591699839E0,-2.850800037E0
1.378400000E1,1.688499928E0,3.195299864E0,-2.229899883E0
1.380400000E1,3.380399942E0,3.066499949E0,-5.180999637E-1
1.382400000E1,4.276799679E0,1.867100000E0,1.036700010E0
1.384400000E1,4.159500122E0,7.547999620E-1,3.054999828E0
1.386400000E1,3.944700003E0,-7.264999747E-1,3.756599903E0
1.388400000E1,3.146699905E0,-1.959399939E0,2.260699987E0
1.390400000E1,3.216599941E0,-2.231499910E0,4.730999768E-1
1.392400000E1,3.079200029E0,-1.336399913E0,-2.049999982E-1
1.394400000E1,2.014400005E0,1.343999952E-1,5.977999568E-1
1.396400000E1,1.197999939E-1,1.617799997E0,2.345700026E0
1.398400000E1,-2.030999899E0,2.566499949E0,4.163099766E0
1.400400000E1,-3.932099819E0,3.490700006E0,5.325699806E0
1.402400000E1,-5.576200008E0,4.701299667E0,4.423500061E0
1.404400000E1,-4.517299652E0,4.125999928E0,2.555899858E0
1.406400000E1,-2.650099993E0,3.517400026E0,3.350499868E0
1.408400000E1,-4.077399731E0,2.178599834E0,6.143899918E0
1.410400000E1,-4.990499973E0,7.687000036E-1,3.860699892E0
1.412404219E1,-2.002399921E0,-4.273999929E-1,-5.680000037E-2
1.415400000E1,7.348999977E-1,-2.050099850E0,-5.852499962E0
1.417400000E1,-1.198499918E0,-4.372200012E0,-5.667099953E0
1.419400000E1,-4.707200050E0,-5.651799679E0,-4.717799664E0
1.421400000E1,-6.648399830E0,-5.982500076E0,-3.306099892E0
1.423400000E1,-4.822499752E0,-4.324199677E0,-2.063899994E0
1.425400000E1,6.175000072E-1,-2.886199951E0,-2.451299906E0
1.427400000E1,3.285300016E0,-1.497799993E0,-1.936399937E0
1.429400000E1,3.355899811E0,-2.588000000E-1,-8.306999803E-1
1.431400000E1,3.775099993E0,1.494899988E0,-1.500999928E-1
1.433400156E1,5.019499779E0,2.321799994E0,9.999999311E-4
1.435400156E1,6.138700008E0,3.242699862E0,3.222000003E-1
1.438400000E1,6.679999828E0,4.472199917E0,-1.313099980E0
1.440400000E1,6.590099812E0,4.308499813E0,-1.297699928E0
1.442400000E1,5.804899693E0,3.768199921E0,6.229999661E-1
1.444400156E1,3.981099844E0,2.940899849E0,1.071300030E0
1.446400156E1,2.827000022E-1,2.709300041E0,2.438599825E0
1.448400156E1,-4.019700050E0,1.263000011E0,5.972599983E0
1.451400000E1,-9.150099754E0,-3.162799835E0,4.605299950E0
1.453400000E1,-6.868299961E0,-2.669299841E0,3.806299925E0
1.455400156E1,-2.963699818E0,-5.015999675E-1,7.589599609E0
1.458400000E1,-3.776599884E0,-1.364300013E0,4.694699764E0
1.460400000E1,-4.887700081E0,-1.377499938E0,-1.100099921E0
1.462400000E1,-2.827399969E0,-1.762399912E0,-3.932899952E0
1.464400000E1,-1.560299993E0,-2.500999928E0,-4.783899784E0
1.466400000E1,-9.804999828E-1,-3.838099957E0,-4.854700089E0
1.468400000E1,5.164999962E-1,-3.241899967E0,-7.247299671E0
1.470400000E1,2.402600050E0,-9.206999540E-1,-7.016899586E0
1.472400000E1,4.113699913E0,-3.867000043E-1,-5.641299725E0
1.474400000E1,4.133800030E0,-8.697999716E-1,-3.699899912E0
1.476400000E1,2.964699984E0,-6.316999793E-1,-2.112299919E0
1.478400000E1,3.919899940E0,-5.958999991E-1,-5.730000138E-1
1.480400000E1,5.027899742E0,-4.298999906E-1,-1.739999950E-1
1.482400000E1,5.773399830E0,-6.299999952E-1,5.778999925E-1
1.484400000E1,4.463799953E0,4.472999871E-1,5.110999942E-1
1.486400000E1,2.579099894E0,1.249400020E0,5.317000151E-1
1.488400000E1,7.777000070E-1,1.488399982E0,4.714999795E-1
1.490400000E1,-1.054499984E0,1.727999926E0,7.957999706E-1
1.492400000E1,-1.520999908E0,2.299299955E0,1.367900014E0
1.494400000E1,-5.536000133E-1,3.362200022E0,1.115399957E0
1.496400000E1,-1.886999905E-1,3.916599989E0,2.620599985E0
1.498400000E1,-1.481299996E0,3.869599819E0,4.917299747E0
1.500400000E1,-2.995299816E0,3.183300018E0,6.795499802E0
1.502400000E1,-4.568299770E0,3.788399935E0,4.680299759E0
1.504400000E1,-4.647200108E0,4.196799755E0,1.423299909E0
1.506400000E1,-2.430699825E0,3.880599976E0,9.593999982E-1
1.508400000E1,-3.666499853E0,4.197199821E0,1.161199927E0
1.510400000E1,-4.802700043E0,3.568099976E0,9.409999847E-1
1.512400000E1,-1.950799942E0,1.530699968E0,-5.988000035E-1
1.514400000E1,1.381999969E0,-1.018499970E0,-1.548099995E0
1.516400000E1,7.094999552E-1,-2.854199886E0,-2.977999926E0
1.518400000E1,-8.768999577E-1,-5.072099686E0,-9.577999711E-1
1.520400000E1,-3.961299896E0,-6.122600079E0,-1.959399939E0
1.522400000E1,-5.450200081E0,-5.123600006E0,-2.710599899E0
1.524400000E1,-2.544899940E0,-4.407399654E0,-1.677399993E0
1.526400000E1,1.336199999E0,-3.052799940E0,-2.824999988E-1
1.528400000E1,2.098000050E0,-1.591699958E0,-5.846999884E-1
1.530400000E1,2.551399946E0,-4.278999865E-1,-1.077600002E0
1.532400000E1,3.208999872E0,5.570999980E-1,-1.286000013E0
1.534400000E1,3.584399939E0,2.396699905E0,-3.497999907E-1
1.536400000E1,4.412399769E0,3.144699812E0,2.432999909E-1
1.538400000E1,5.425799847E0,3.321399927E0,-1.733299971E0
1.540400000E1,6.153599739E0,2.902199984E0,-2.782099962E0
1.542400000E1,5.409499645E0,1.958399892E0,-2.960099936E0
1.544400000E1,4.126299858E0,4.541999996E-1,-2.978999853E0
1.546400000E1,2.096199989E0,3.064000010E-1,-1.485799909E0
1.548400000E1,-3.558999896E-1,8.115999699E-1,7.907999754E-1
1.550400000E1,-3.208499908E0,6.584999561E-1,3.500199795E0
1.552400000E1,-7.000599861E0,-2.402199984E0,7.629199982E0
1.554400000E1,-8.609499931E0,-2.800199986E0,7.503099918E0
1.556400000E1,-3.308499813E0,-9.449999779E-2,8.925499916E0
1.558400000E1,-2.188400030E0,-4.055999815E-1,5.867599964E0
1.560400000E1,-3.087499857E0,-1.067199945E0,1.605099916E0
1.562400000E1,-5.149999857E-1,-1.755899906E0,-9.582999945E-1
1.564400000E1,1.081900001E0,-3.007400036E0,-3.989300013E0
1.566400000E1,-4.156000018E-1,-3.633399963E0,-4.312900066E0
1.568400000E1,-1.741499901E0,-2.554499865E0,-6.125400066E0
1.570400000E1,-2.291499853E0,1.169999968E-2,-7.524299622E0
1.572400000E1,-2.541999817E-1,4.775999784E-1,-6.902699947E0
1.574400000E1,1.820699930E0,1.037699938E0,-5.224599838E0
1.576400156E1,2.377599955E0,1.831200004E0,-3.995699883E0
1.579400000E1,3.010499954E0,1.857100010E0,-1.026099920E0
1.581400000E1,3.275899887E0,1.406299949E0,3.902999759E-1
1.583400000E1,3.429499865E0,5.036000013E-1,1.768000007E0
1.585400156E1,2.938299894E0,-4.959999770E-2,3.324299812E0
1.588400000E1,2.279999971E0,-3.929999769E-1,2.903100014E0
1.590400000E1,2.341399908E0,-1.711999923E-1,4.405999780E-1
1.592400000E1,2.444599867E0,3.980999887E-1,2.699999837E-3
1.594400156E1,1.973599911E0,1.344699979E0,1.127799988E0
1.597400000E1,-3.326999843E-1,2.075599909E0,3.250200033E0
1.599400000E1,-2.375099897E0,1.895599961E0,4.341700077E0
1.601400000E1,-4.040899754E0,1.590799928E0,4.309000015E0
1.603400000E1,-5.063600063E0,2.104799986E0,3.063899994E0
1.605400000E1,-3.667299986E0,3.124799967E0,1.240999937E0
1.607400000E1,-3.537899971E0,3.508399963E0,2.633499861E0
1.609400000E1,-5.900300026E0,2.472199917E0,4.044799805E0
1.611400000E1,-4.122399807E0,1.052500010E0,2.114199877E0
1.613400000E1,-8.646999598E-1,6.140999794E-1,-1.338199973E0
1.615400000E1,1.794799924E0,-2.430000007E-1,-4.256299973E0
1.617400000E1,1.467599988E0,-2.369699955E0,-3.970299959E0
1.619400000E1,-6.671000123E-1,-4.506000042E0,-2.342000008E0
1.621400000E1,-3.390299797E0,-4.848499775E0,-1.802699924E0
1.623400000E1,-3.434899807E0,-4.383399963E0,-6.764000058E-1
1.625400000E1,2.538000047E-1,-3.594199896E0,-1.270200014E0
1.627400000E1,3.459499836E0,-2.738399982E0,-1.740000010E0
1.629400000E1,3.797299862E0,-1.450599909E0,-1.661799908E0
1.631400000E1,2.908999920E0,6.067999601E-1,-4.953999817E-1
1.633400000E1,2.886399984E0,2.197499990E0,8.201999664E-1
1.635400000E1,3.498299837E0,3.300099850E0,8.238999844E-1
1.637400000E1,3.273799896E0,4.076799870E0,9.102999568E-1
1.639400000E1,3.059099913E0,3.419699907E0,-7.125999928E-1
1.641400000E1,3.373299837E0,1.018599987E0,-1.367900014E0
1.643400000E1,3.244299889E0,-2.723999918E-1,-1.059899926E0
1.645400000E1,2.912799835E0,-9.535999894E-1,-7.585999966E-1
1.647400000E1,1.748099923E0,-2.811000049E-1,9.552999735E-1
1.649400000E1,-8.488999605E-1,3.949999809E-2,3.006899834E0
1.651400000E1,-3.761600018E0,-4.244999886E-1,5.292200089E0
1.653400000E1,-5.887799740E0,-7.394999862E-1,5.211100101E0
1.655400000E1,-5.934700012E0,-1.216999963E-1,7.317499638E0
1.657400000E1,-3.730399847E0,1.601300001E0,8.091499329E0
1.659400000E1,-2.922099829E0,1.026000008E-1,4.482399940E0
1.661400000E1,-2.513799906E0,-1.866699934E0,6.213999987E-1
1.663400000E1,-6.020999551E-1,-2.632999897E0,-2.646699905E0
1.665400000E1,6.766999960E-1,-3.609499931E0,-4.003900051E0
1.667400000E1,7.857999802E-1,-5.944599628E0,-3.664699793E0
1.669400000E1,1.599999964E-1,-6.146999836E0,-4.812399864E0
1.671400000E1,-1.881699920E0,-1.133299947E0,-5.419799805E0
1.673400469E1,-1.119099975E0,3.597999811E-1,-5.354899883E0
1.676400000E1,1.182099938E0,1.432199955E0,-3.984299898E0
1.678400000E1,1.247699976E0,2.118000031E0,-3.021199942E0
1.680400000E1,2.296099901E0,2.390699863E0,-1.614899993E0
1.682400000E1,3.340499878E0,2.302899837E0,-2.461999953E-1
1.684400000E1,3.833299875E0,1.790199995E0,1.202299953E0
1.686400000E1,3.896199942E0,9.611999989E-1,2.680799961E0
1.688400000E1,3.855999947E0,-1.348000020E-1,3.329799891E0
1.690400000E1,3.221699953E0,-9.808999896E-1,2.393499851E0
1.692400000E1,2.591099977E0,-1.137099981E0,6.554999948E-1
1.694400000E1,2.263000011E0,-1.553999931E-1,-6.819999963E-2
1.696400000E1,1.529599905E0,9.861999750E-1,5.421999693E-1
1.698400000E1,-1.429999918E-1,2.073299885E0,1.970899940E0
1.700400000E1,-2.118900061E0,2.694599867E0,3.423199892E0
1.702400000E1,-3.648499966E0,2.765699863E0,4.478199959E0
1.704400000E1,-4.974299908E0,3.180299997E0,4.733900070E0
1.706400000E1,-3.937500000E0,3.439699888E0,3.295300007E0
1.708400156E1,-3.028599977E0,3.228600025E0,3.946599960E0
1.711400000E1,-5.440299988E0,2.122299910E0,2.858999968E0
1.713400000E1,-2.749599934E0,1.106199980E0,4.230000079E-2
1.715400000E1,9.582999945E-1,-3.830000013E-2,-3.046200037E0
1.717400000E1,1.337700009E0,-2.061300039E0,-4.375999928E0
1.719400000E1,-4.210000038E-1,-4.898200035E0,-2.484299898E0
1.721400000E1,-3.759599924E0,-5.262799740E0,-1.903999925E0
1.723400000E1,-5.453499794E0,-4.943900108E0,-1.531399965E0
1.725400000E1,-2.226500034E0,-4.643300056E0,-1.106599927E0
1.727400000E1,1.815599918E0,-3.492799997E0,-1.517799973E0
1.729400000E1,3.086400032E0,-2.189199924E0,-1.529699922E0
1.731400000E1,2.622499943E0,-3.206000030E-1,-9.684999585E-1
1.733400000E1,2.900599957E0,9.653999805E-1,-6.529999971E-1
1.735400156E1,3.432199955E0,2.490700006E0,1.195999980E-1
1.738400156E1,4.437999725E0,3.968799829E0,1.587999910E-1
1.741400000E1,5.078599930E0,3.051100016E0,-1.407499909E0
1.743400000E1,4.709899902E0,1.865499973E0,-9.365999699E-1
1.745400000E1,4.245800018E0,6.924999952E-1,-5.805999637E-1
1.747400000E1,2.671000004E0,3.888999820E-1,4.724999964E-1
1.749400000E1,-3.579999804E-1,4.429999888E-1,2.606799841E0
1.751400000E1,-3.856099844E0,2.869999968E-2,5.275000095E0
1.753400000E1,-6.782199860E0,-2.124699831E0,4.623699665E0
1.755400000E1,-6.976099968E0,-2.349400043E0,7.469499588E0
1.757400000E1,-3.247200012E0,7.498999834E-1,8.503499985E0
1.759400000E1,-2.200000048E0,4.820999801E-1,5.561299801E0
1.761400000E1,-3.104699850E0,-1.615599990E0,9.042999744E-1
1.763400000E1,-1.463099957E0,-2.400899887E0,-2.530200005E0
1.765400000E1,5.054999590E-1,-4.637899876E0,-3.686899900E0
1.767400000E1,-1.736999899E-1,-6.712699890E0,-4.193799973E0
1.769400000E1,-1.761099935E0,-4.030399799E0,-6.469799995E0
1.771400000E1,-1.856499910E0,-4.184999764E-1,-5.657899857E0
1.773400469E1,-9.393999577E-1,1.084299922E0,-5.877799988E0
1.776400000E1,8.858999610E-1,2.260099888E0,-4.988399982E0
1.778400000E1,1.360199928E0,2.958299875E0,-2.782799959E0
1.780400000E1,2.667199850E0,3.310400009E0,-1.088999987E0
1.782400000E1,4.212199688E0,2.833600044E0,4.777999818E-1
1.784400000E1,4.893699646E0,1.522300005E0,2.607199907E0
1.786400000E1,4.403199673E0,6.477000117E-1,3.658900023E0
1.788400000E1,3.906099796E0,-7.617999911E-1,3.778100014E0
1.790400000E1,3.393199921E0,-1.658899903E0,1.871199965E0
1.792400000E1,3.295199871E0,-1.916000009E0,-3.037000000E-1
1.794400000E1,2.890100002E0,-7.953999639E-1,-8.420999646E-1
1.796400000E1,1.936599970E0,6.273999810E-1,1.684999913E-1
1.798400000E1,-5.386999846E-1,1.892099977E0,1.787799954E0
1.800400000E1,-2.950399876E0,2.893699884E0,3.741099834E0
1.802400000E1,-4.316699982E0,3.421899796E0,5.146299839E0
1.804400000E1,-5.994599819E0,3.566999912E0,5.360499859E0
1.806400000E1,-4.659499645E0,2.794800043E0,4.214799881E0
1.808400000E1,-4.969799995E0,3.444199800E0,3.953999996E0
1.810400000E1,-6.473599911E0,3.722100019E0,2.751299858E0
1.812400000E1,-4.884299755E0,2.940599918E0,3.900000080E-2
1.814400000E1,-8.007000089E-1,1.206599951E0,-3.238899946E0
1.816400156E1,1.078499913E0,-1.100199938E0,-4.867599964E0
1.819400000E1,5.020000041E-2,-4.137599945E0,-2.895200014E0
1.821400000E1,-3.194799900E0,-4.268000126E0,-2.671599865E0
1.823400000E1,-4.545099735E0,-3.965899944E0,-2.672799826E0
1.825400000E1,-1.420699954E0,-3.833599806E0,-1.805999994E0
1.827400000E1,2.066099882E0,-2.675599813E0,-1.432099938E0
1.829400000E1,3.229199886E0,-1.697099924E0,-8.707000017E-1
1.831400000E1,2.305399895E0,-6.650000066E-2,-9.393999577E-1
1.833400000E1,2.689499855E0,1.512199998E0,-1.320099950E0
1.835400156E1,3.629999876E0,3.346499920E0,1.048999950E-1
1.838400000E1,4.901099682E0,3.963299990E0,5.052999854E-1
1.840400000E1,5.206899643E0,3.300899982E0,-1.014299989E0
1.842400000E1,5.045199871E0,1.750800014E0,-8.283999562E-1
1.844400000E1,4.661399841E0,4.779999852E-1,-5.353999734E-1
1.846400000E1,3.724799871E0,-3.604999781E-1,1.150999963E-1
1.848400000E1,1.302399993E0,-3.350999951E-1,1.689000010E0
1.850400000E1,-2.282399893E0,-9.156000018E-1,3.284600019E0
1.852400000E1,-6.556399822E0,-2.028899908E0,3.589099884E0
1.854400000E1,-9.375000000E0,-3.279099941E0,6.632899761E0
1.856400000E1,-5.193299770E0,-5.133999586E-1,9.387899399E0
1.858400000E1,-1.546199918E0,1.929999948E0,8.025599480E0
1.860400000E1,-1.604299903E0,-3.750000000E-1,3.077800035E0
1.862400000E1,-1.700999886E-1,-2.150099993E0,-1.307899952E0
1.864400000E1,9.880999923E-1,-3.138399839E0,-4.661600113E0
1.866400000E1,3.719999790E-1,-7.027099609E0,-4.854599953E0
1.868400000E1,-1.843599916E0,-8.038000107E0,-7.263000011E0
1.870400000E1,-2.158499956E0,-2.295599937E0,-7.425899982E0
1.872400000E1,-2.029999942E-1,2.478999943E-1,-6.578700066E0
1.874400000E1,-2.866999805E-1,2.415099859E0,-6.385399818E0
1.876400000E1,6.739999652E-1,2.514699936E0,-3.994899988E0
1.878400000E1,1.471300006E0,3.409899950E0,-1.687899947E0
1.880400000E1,3.123099804E0,4.206799984E0,-3.499999875E-3
1.882400000E1,4.587399960E0,2.833299875E0,2.551699877E0
1.884400000E1,4.469899654E0,2.321499825E0,4.233299732E0
1.886400000E1,4.506799698E0,6.457999945E-1,5.564399719E0
1.888400000E1,4.181499958E0,-8.306999803E-1,3.898499966E0
1.890400000E1,3.643199921E0,-2.735899925E0,-4.169999957E-1
1.892400000E1,2.858000040E0,-3.253499985E0,-1.886999965E0
1.894400000E1,2.307899952E0,-1.056699991E0,9.169999510E-2
1.896400000E1,5.209000111E-1,7.299000025E-1,2.046099901E0
1.898400000E1,-2.521800041E0,2.106099844E0,3.093199968E0
1.900400000E1,-5.371799946E0,3.267299891E0,4.224899769E0
1.902400000E1,-7.036200047E0,4.474400043E0,3.133399963E0
1.904400000E1,-7.067599773E0,5.488899708E0,9.212999940E-1
1.906400000E1,-4.315000057E0,4.545700073E0,3.040499926E0
1.908400000E1,-4.453099728E0,3.945999861E0,4.746399879E0
1.910400000E1,-4.928400040E0,2.811399937E0,2.085899830E0
1.912400000E1,-2.219199896E0,1.254699945E0,1.052000001E-1
1.914400000E1,8.581999540E-1,-8.858000040E-1,-2.041199923E0
1.916400000E1,1.028800011E0,-2.176300049E0,-4.144099712E0
1.918400000E1,-1.428999901E-1,-2.837499857E0,-3.335099936E0
1.920400000E1,-2.235399961E0,-2.411999941E0,-1.819399953E0
1.922400000E1,-2.857699871E0,-2.626999855E0,-1.529399991E0
1.924400000E1,-1.728099942E0,-3.126899958E0,-1.736299992E0
1.926400000E1,6.626999974E-1,-2.595199823E0,-1.121199965E0
1.928400000E1,1.751999974E0,-1.843899965E0,-5.623999834E-1
1.930400000E1,2.730000019E0,-4.472999871E-1,-8.661999702E-1
1.932400000E1,3.300299883E0,1.324100018E0,2.752999961E-1
1.934400000E1,4.107100010E0,2.547199965E0,7.495999932E-1
1.936400000E1,4.422100067E0,3.482800007E0,-6.516999602E-1
1.938400000E1,5.007999897E0,3.159999847E0,-2.607300043E0
1.940400000E1,5.768399715E0,2.169999838E0,-2.896399975E0
1.942400000E1,6.060999870E0,1.339200020E0,-3.051100016E0
1.944400000E1,5.431099892E0,1.062500000E0,-2.590100050E0
1.946400000E1,3.690099955E0,9.210999608E-1,-9.473999739E-1
1.948400000E1,1.594000012E-1,-2.008000016E-1,2.037799835E0
1.950400000E1,-5.487499714E0,-2.199300051E0,4.281399727E0
1.952400000E1,-9.978699684E0,-3.016499996E0,4.106999874E0
1.954400000E1,-9.329400063E0,-2.990900040E0,8.660200119E0
1.956400000E1,-4.665599823E0,-2.724999785E-1,9.341599464E0
1.958400000E1,-1.413599968E0,1.335999966E-1,5.602299690E0
1.960400000E1,-2.474200010E0,-3.919999897E-1,1.839699984E0
1.962400000E1,-3.118000031E-1,-1.592799902E0,-8.986999989E-1
1.964400000E1,1.317299962E0,-3.221699953E0,-3.396099806E0
1.966400000E1,1.257900000E0,-6.304699898E0,-3.271199942E0
1.968400000E1,7.468000054E-1,-6.345900059E0,-6.184199810E0
1.970400000E1,1.595000029E-1,-3.799199820E0,-5.574100018E0
1.972400000E1,-1.197799921E0,5.507000089E-1,-5.795799732E0
1.974400000E1,-1.660499930E0,2.286900043E0,-5.631599903E0
1.976400000E1,-1.021000028E0,3.036000013E0,-3.572899818E0
1.978400000E1,9.375999570E-1,3.432600021E0,-1.670300007E0
1.980400000E1,2.059799910E0,4.039999962E0,-5.162999630E-1
1.982400000E1,3.416499853E0,3.221199989E0,1.040400028E0
1.984400000E1,4.216199875E0,2.014400005E0,2.829299927E0
1.986400000E1,4.379199982E0,9.849999547E-1,4.269499779E0
1.988400000E1,4.574999809E0,-4.420999885E-1,3.152999878E0
1.990400000E1,4.297199726E0,-1.372900009E0,1.127599955E0
1.992400000E1,3.933099985E0,-1.421299934E0,-1.680999994E-1
1.994400000E1,3.151099920E0,-4.035999775E-1,4.799999762E-3
1.996400000E1,1.855299950E0,9.853000045E-1,7.410999537E-1
1.998400000E1,-4.302999973E-1,2.192800045E0,1.836599946E0
2.000400000E1,-3.259599924E0,2.649899960E0,3.113499880E0
2.002400000E1,-5.857699871E0,3.428399801E0,3.385399818E0
2.004400000E1,-7.234299660E0,4.883800030E0,1.030200005E0
2.006400469E1,-4.282799721E0,4.455199718E0,1.448099971E0
2.009400000E1,-4.237800121E0,3.393699884E0,5.444099903E0
2.011400000E1,-5.946199894E0,2.328999996E0,2.729899883E0
2.013400000E1,-2.583699942E0,1.067499995E0,9.160000086E-2
2.015400000E1,1.514799953E0,-5.396000147E-1,-1.072999954E0
2.017400000E1,3.328699827E0,-2.288599968E0,-3.266000032E0
2.019400000E1,1.078699946E0,-3.253000021E0,-3.071399927E0
2.021400000E1,-3.219599962E0,-2.947000027E0,-3.012599945E0
2.023400000E1,-5.500799656E0,-2.653300047E0,-2.301499844E0
2.025400000E1,-2.934399843E0,-2.269500017E0,-1.113600016E0
2.027400000E1,5.629000068E-1,-1.018299937E0,-3.903999925E-1
2.029400000E1,1.560299993E0,-2.728999853E-1,-4.104000032E-1
2.031400000E1,2.230900049E0,5.645999908E-1,-1.224699974E0
2.033400000E1,3.313899994E0,1.358099937E0,-9.109999537E-1
2.035400000E1,4.051000118E0,2.020400047E0,6.279999614E-1
2.037400000E1,4.644199848E0,2.294699907E0,6.297999620E-1
2.039400000E1,4.834700108E0,2.138499975E0,-1.095899940E0
2.041400000E1,4.970799923E0,1.738600016E0,-2.605900049E0
2.043400000E1,5.206500053E0,6.922000051E-1,-2.946499825E0
2.045400000E1,4.917399883E0,1.128999963E-1,-2.847299814E0
2.047400000E1,3.876499891E0,-5.619999766E-2,-1.707700014E0
2.049400000E1,1.115800023E0,-5.150000006E-2,3.283999860E-1
2.051400000E1,-2.869799852E0,-5.327000022E-1,2.742399931E0
2.053400000E1,-7.228600025E0,-9.965999722E-1,3.701399803E0
2.055400000E1,-9.644000053E0,-2.116600037E0,7.953399658E0
2.057400000E1,-5.481499672E0,-5.163999796E-1,1.088259983E1
2.059400156E1,-1.776499987E0,8.675999641E-1,8.878999710E0
2.062400000E1,-2.285099983E0,-1.380899906E0,1.148599982E0
2.064400000E1,2.699999837E-3,-2.621299982E0,-2.546799898E0
2.066400000E1,1.051399946E0,-3.578399897E0,-4.328700066E0
2.068400000E1,3.957999945E-1,-6.862999916E0,-4.198400021E0
2.070400000E1,-1.052000001E-1,-7.725699902E0,-6.051499844E0
2.072400000E1,-9.204999804E-1,-2.033799887E0,-5.012799740E0
2.074400000E1,-1.469200015E0,1.229599953E0,-4.425399780E0
2.076400000E1,-1.238600016E0,2.412199974E0,-3.683699846E0
2.078400000E1,1.061999947E-1,3.016199827E0,-1.649099946E0
2.080400000E1,1.624199986E0,4.147699833E0,-2.691999972E-1
2.082400000E1,3.540499926E0,3.967799902E0,7.074999809E-1
2.084400000E1,4.416399956E0,2.794399977E0,1.949799895E0
2.086400000E1,4.651199818E0,1.306900024E0,3.516899824E0
2.088400000E1,3.732899904E0,6.899999827E-2,2.882400036E0
2.090400000E1,3.198400021E0,-9.977999926E-1,1.234499931E0
2.092400000E1,3.511799812E0,-1.306399941E0,-3.674999774E-1
2.094400000E1,4.234600067E0,-1.091099977E0,-7.793999910E-1
2.096400000E1,3.241999865E0,4.649999738E-2,-2.669999935E-2
2.098400000E1,1.198599935E0,1.016099930E0,1.710699916E0
2.100400000E1,-1.782499909E0,1.784500003E0,2.822099924E0
2.102400000E1,-4.133999825E0,2.146399975E0,3.786499977E0
2.104400000E1,-5.666699886E0,1.854599953E0,3.913299799E0
2.106400000E1,-5.300299644E0,2.574300051E0,2.200799942E0
2.108400000E1,-3.177399874E0,2.871999979E0,3.630999804E0
2.110400000E1,-3.111299992E0,2.940799952E0,6.491499901E0
2.112400000E1,-4.986700058E0,2.637199879E0,4.714799881E0
2.114400000E1,-1.591899991E0,1.367299914E0,1.650699973E0
2.116400000E1,1.561900020E0,-7.490000129E-2,-2.209699869E0
2.118400000E1,1.247099996E0,-1.071799994E0,-7.686199665E0
2.120400000E1,-1.928699970E0,-2.133399963E0,-7.117899895E0
2.122400000E1,-4.964900017E0,-2.663100004E0,-4.348599911E0
2.124400000E1,-4.860300064E0,-1.887699962E0,-2.735999823E-1
2.126400000E1,-2.455899954E0,-1.531799912E0,8.924999833E-1
2.128400000E1,5.625999570E-1,-1.113899946E0,1.379999965E-1
2.130400000E1,1.985399961E0,-1.253299952E0,-2.509000003E-1
2.132400000E1,2.324399948E0,-1.389999986E-1,-7.882999778E-1
2.134400000E1,3.063699961E0,1.182199955E0,-1.774399996E0
2.136400000E1,3.891599894E0,2.860399961E0,1.753000021E-1
2.138400000E1,4.393799782E0,4.032999992E0,7.213000059E-1
2.140400000E1,4.938699722E0,4.365999699E0,-1.369899988E0
2.142400156E1,5.846799850E0,3.362599850E0,-2.815699816E0
2.144400156E1,6.103600025E0,1.786999941E0,-2.154799938E0
2.147400000E1,3.640299797E0,6.182999611E-1,-9.904999733E-1
2.149400156E1,3.121999800E-1,3.488999903E-1,6.434999704E-1
2.151400156E1,-3.362799883E0,-1.987299919E0,3.543599844E0
2.154400000E1,-1.029109955E1,-5.516900063E0,5.153999805E0
2.156400000E1,-6.604300022E0,-1.997899890E0,1.041429996E1
2.158400000E1,-8.416999578E-1,1.919199944E0,1.025000000E1
2.160400000E1,-2.069499969E0,1.600099921E0,5.040499687E0
2.162400000E1,-1.549399972E0,-9.043999910E-1,-9.921000004E-1
2.164400000E1,1.049999986E-2,-2.354699850E0,-4.240699768E0
2.166400000E1,-5.639999732E-2,-6.164299965E0,-4.372999668E0
2.168400156E1,-1.528599977E0,-6.392299652E0,-8.152999878E0
2.171400000E1,-1.061499953E0,-5.846999884E-1,-7.356799603E0
2.173400156E1,3.669999912E-2,1.435599923E0,-6.487099648E0
2.176400000E1,7.387999892E-1,2.569999933E0,-3.438499928E0
2.178400000E1,1.004799962E0,3.951099873E0,-2.462100029E0
2.180400000E1,3.039799929E0,3.875599861E0,-1.106999964E-1
2.182400000E1,3.872599840E0,2.933799982E0,2.529700041E0
2.184400000E1,3.943399906E0,1.891099930E0,4.723700047E0
2.186400000E1,3.673599958E0,6.893999577E-1,4.552499771E0
2.188400000E1,3.639400005E0,-6.610999703E-1,2.034800053E0
2.190400000E1,3.614300013E0,-6.614999771E-1,-3.253999949E-1
2.192400000E1,3.708400011E0,-2.289000005E-1,-1.922999918E-1
2.194400000E1,2.688400030E0,7.310000062E-1,1.084200025E0
2.196400000E1,7.118999958E-1,1.434799910E0,2.269399881E0
2.198400000E1,-2.754199982E0,2.265100002E0,3.450099945E0
2.200400000E1,-6.561899662E0,2.914999962E0,5.154500008E0
2.202400000E1,-7.818899632E0,4.637300014E0,3.575299978E0
2.204400000E1,-4.999199867E0,5.281499863E0,2.182999998E-1
2.206400000E1,-2.282099962E0,4.585099697E0,2.344899893E0
2.208400000E1,-4.352600098E0,3.694399834E0,4.772599697E0
2.210400000E1,-4.077300072E0,1.708899975E0,2.200399876E0
2.212400000E1,-6.164000034E-1,9.009999782E-2,-5.338000059E-1
2.214400000E1,1.416000009E0,-1.247200012E0,-4.744499683E0
2.216400000E1,5.449000001E-1,-2.611500025E0,-5.875099659E0
2.218400000E1,-1.575099945E0,-4.146100044E0,-3.591899872E0
2.220400000E1,-3.646199942E0,-3.600899935E0,-1.761199951E0
2.222400000E1,-3.398999929E0,-2.884399891E0,-9.713999629E-1
2.224400000E1,-8.483999968E-1,-2.176199913E0,-2.214200020E0
2.226400000E1,2.195099831E0,-1.880800009E0,-1.409899950E0
2.228400000E1,3.081599951E0,-7.879999876E-1,-3.391000032E-1
2.230400000E1,3.281100035E0,6.614999771E-1,-4.675000012E-1
2.232400000E1,3.430199862E0,2.047999859E0,-5.449999869E-2
2.234400000E1,3.538599968E0,3.643599987E0,3.217999935E-1
2.236400000E1,4.326999664E0,3.999599934E0,-9.621999860E-1
2.238400000E1,5.493000031E0,3.388299942E0,-1.253000021E0
2.240400000E1,6.055299759E0,2.147500038E0,-1.840599895E0
2.242400000E1,5.539599895E0,1.064299941E0,-2.151099920E0
2.244400000E1,3.981099844E0,4.420000017E-1,-1.067000031E0
2.246400000E1,4.354999959E-1,-1.299999952E-1,8.282999992E-1
2.248400000E1,-3.651999950E0,-2.199699879E0,3.529399872E0
2.250400000E1,-7.869799614E0,-3.475799799E0,3.745499849E0
2.252400000E1,-9.442299843E0,-4.643399715E0,6.981799603E0
2.254400000E1,-5.473999977E0,-2.399999857E0,9.673699379E0
2.256400000E1,-1.659599900E0,3.445000052E-1,8.691800117E0
2.258400000E1,-2.684399843E0,-4.806999862E-1,3.863999844E0
2.260400000E1,-1.745000005E0,-2.275300026E0,-7.585999966E-1
2.262400000E1,-1.409000009E-1,-3.117300034E0,-3.709299803E0
2.264400000E1,1.162500024E0,-5.482699871E0,-4.630700111E0
2.266400000E1,4.549999833E-1,-6.568199635E0,-6.540400028E0
2.268400000E1,-6.614999771E-1,-4.672599792E0,-7.331099987E0
2.270400000E1,-9.183999896E-1,-1.616400003E0,-5.270599842E0
2.272400000E1,-1.380999923E0,5.821999907E-1,-4.848499775E0
2.274400000E1,-7.319999486E-2,1.393599987E0,-2.672199965E0
2.276400000E1,1.478899956E0,2.646100044E0,-1.137199998E0
2.278400000E1,3.164000034E0,3.283399820E0,-5.067999959E-1
2.280400000E1,4.639699936E0,2.895699978E0,1.452299953E0
2.282400000E1,5.211499691E0,1.859599948E0,2.939699888E0
2.284400000E1,5.080499649E0,7.839999795E-1,3.272799969E0
2.286400000E1,4.504799843E0,-1.145999953E-1,1.869599938E0
2.288400000E1,4.090300083E0,-8.050000072E-1,-2.912999988E-1
2.290400000E1,3.280999899E0,-7.489999533E-1,-1.743099928E0
2.292400000E1,2.448299885E0,2.946999967E-1,-1.712000012E0
2.294400000E1,9.519999623E-1,1.427999973E0,-5.931000113E-1
2.296400000E1,-1.199399948E0,2.115099907E0,1.642799973E0
2.298400000E1,-3.152099848E0,2.511699915E0,3.165899992E0
2.300400000E1,-4.776199818E0,2.816799879E0,4.285299778E0
2.302400156E1,-5.909699917E0,3.150300026E0,3.762699842E0
2.305400000E1,-3.016099930E0,2.732199907E0,3.489199877E0
2.307400000E1,-4.702799797E0,2.291899920E0,5.044799805E0
2.309400000E1,-5.896299839E0,1.371399999E0,3.300799847E0
2.311400000E1,-2.860800028E0,8.836999536E-1,3.317999840E-1
2.313400000E1,9.361000061E-1,-2.997999787E-1,-1.834899902E0
2.315400000E1,2.397899866E0,-1.774099946E0,-3.701799870E0
2.317400000E1,1.238600016E0,-3.044099808E0,-2.399600029E0
2.319400000E1,-2.430599928E0,-3.203500032E0,-1.375599980E0
2.321400000E1,-4.378999710E0,-3.327399969E0,-8.133999705E-1
2.323400000E1,-2.677099943E0,-3.568599939E0,-6.582999825E-1
2.325400000E1,1.072799921E0,-2.081099987E0,-1.073199987E0
2.327400000E1,2.329900026E0,-1.046299934E0,-1.833599925E0
2.329400000E1,2.535300016E0,2.897999883E-1,-2.088500023E0
2.331400000E1,2.928200006E0,1.344699979E0,-7.429999709E-1
2.333400000E1,3.038100004E0,2.476799965E0,5.374999642E-1
2.335400000E1,3.126899958E0,3.671399832E0,8.852999806E-1
2.337400000E1,4.141099930E0,3.799399853E0,-1.439599991E0
2.339400000E1,5.200299740E0,3.270900011E0,-1.814199924E0
2.341400000E1,5.655399799E0,2.137899876E0,-1.670599937E0
2.343400000E1,4.915299892E0,1.353399992E0,-1.385499954E0
2.345400000E1,2.670500040E0,1.144500017E0,-2.624000013E-1
2.347400000E1,-4.210999906E-1,6.915000081E-1,2.592499971E0
2.349400000E1,-4.612699986E0,-9.729999900E-1,6.187999725E0
2.351400000E1,-8.561999321E0,-2.335500002E0,4.518300056E0
2.353400000E1,-6.891299725E0,-2.248800039E0,7.691299915E0
2.355400000E1,-2.785899878E0,-5.042999983E-1,7.884599686E0
2.357400000E1,-2.448400021E0,-1.056200027E0,5.414899826E0
2.359400000E1,-3.343099833E0,-1.578799963E0,9.433999658E-1
2.361400000E1,-7.865999937E-1,-2.678299904E0,-2.277400017E0
2.363400000E1,6.370999813E-1,-4.767899990E0,-3.929999828E0
2.365400000E1,7.939999551E-2,-7.008999825E0,-4.221899986E0
2.367400000E1,-1.062799931E0,-4.089399815E0,-6.676499844E0
2.369400000E1,-1.635800004E0,-2.850999832E-1,-6.179299831E0
2.371400000E1,-1.832699895E0,1.741099954E0,-5.360899925E0
2.373400156E1,-4.678999782E-1,2.816999912E0,-4.187200069E0
2.376400000E1,2.641899824E0,3.727399826E0,-1.223699927E0
2.378400000E1,4.072899818E0,4.056600094E0,-2.328999937E-1
2.380400000E1,4.570799828E0,3.037499905E0,1.496299982E0
2.382400000E1,4.542699814E0,1.809899926E0,3.635399818E0
2.384400000E1,3.649799824E0,7.292999625E-1,4.176599979E0
2.386400000E1,2.896800041E0,-4.836999774E-1,2.513599873E0
2.388400000E1,2.674199820E0,-1.410099983E0,2.132999897E-1
2.390400000E1,3.250099897E0,-1.441699982E0,-7.439000010E-1
2.392400000E1,3.422799826E0,-3.322999775E-1,-1.180999950E-1
2.394400000E1,2.015199900E0,1.001699924E0,1.310799956E0
2.396400000E1,-5.939999819E-1,1.791099906E0,2.731199980E0
2.398400000E1,-3.530499935E0,2.314100027E0,3.607999802E0
2.400400000E1,-5.388799667E0,2.282500029E0,4.253600121E0
2.402400156E1,-6.638299942E0,3.358399868E0,2.014099836E0
2.405400000E1,-4.065400124E0,3.729899883E0,2.285399914E0
2.407400000E1,-5.416699886E0,4.184700012E0,2.863999844E0
2.409400000E1,-6.124300003E0,2.990999937E0,1.534899950E0
2.411400000E1,-3.559700012E0,1.491199970E0,-1.235700011E0
2.413400000E1,6.165999770E-1,-1.810999960E-1,-2.757999897E0
2.415400000E1,2.390399933E0,-1.620800018E0,-3.169999838E0
2.417400000E1,1.584199905E0,-2.161799908E0,-2.133499861E0
2.419400000E1,-4.147999883E-1,-2.231799841E0,-8.476999998E-1
2.421400000E1,-1.770200014E0,-2.624399900E0,-9.599999785E-1
2.423400000E1,-9.924999475E-1,-3.205499887E0,-1.348500013E0
2.425400000E1,9.934999943E-1,-2.403899908E0,-7.132999897E-1
2.427400000E1,2.139699936E0,-1.264599919E0,-1.630199909E0
2.429400000E1,1.761999965E0,-2.458999902E-1,-1.449199915E0
2.431400000E1,1.261699915E0,1.088199973E0,-2.194999903E-1
2.433400000E1,1.328799963E0,2.306299925E0,6.697999835E-1
2.435400000E1,2.430500031E0,3.015699863E0,7.566999793E-1
2.437400000E1,3.746199846E0,3.019299984E0,-2.255999893E-1
2.439400000E1,4.665499687E0,2.898499966E0,-1.049000025E0
2.441400000E1,5.365399837E0,2.109999895E0,-1.363799930E0
2.443400000E1,5.194499969E0,1.295499921E0,-1.275799990E0
2.445400156E1,3.823899984E0,1.133499980E0,-1.606999934E-1
2.448400000E1,2.719999850E-1,-1.499999911E-1,2.205999851E0
2.450400000E1,-3.206799984E0,-9.445999861E-1,2.375499964E0
2.452400000E1,-7.299799919E0,-2.133899927E0,2.874599934E0
2.454400000E1,-8.453499794E0,-3.455799818E0,6.591599941E0
2.456400000E1,-5.120999813E0,-1.630999923E0,8.146499634E0
2.458400000E1,-2.766000032E0,-8.680999875E-1,6.146999836E0
2.460400000E1,-3.537599802E0,-6.320999861E-1,2.662199974E0
2.462400000E1,-2.085999966E0,-1.127099991E0,-1.050999984E-1
2.464400000E1,2.052000016E-1,-3.709399939E0,-2.301499844E0
2.466400000E1,9.515999556E-1,-5.516399860E0,-2.852299929E0
2.468400000E1,1.525200009E0,-4.639499664E0,-5.453799725E0
2.470400000E1,4.926999807E-1,-1.093500018E0,-5.536999702E0
2.472400000E1,-1.519099951E0,1.620899916E0,-5.412999630E0
2.474400000E1,-2.132499933E0,3.382999897E0,-4.749099731E0
2.476400000E1,-1.542999893E-1,3.538800001E0,-2.552299976E0
2.478400000E1,2.211799860E0,3.587800026E0,-1.736299992E0
2.480400000E1,3.341699839E0,4.189000130E0,1.847999990E-1
2.482400000E1,4.174699783E0,3.364699841E0,6.739000082E-1
2.484400000E1,5.150499821E0,1.938299894E0,2.744400024E0
2.486400000E1,4.706799984E0,1.022400022E0,3.870399952E0
2.488400000E1,4.081599712E0,-1.767999977E-1,3.001999855E0
2.490400000E1,3.320400000E0,-1.474200010E0,1.338500023E0
2.492400000E1,2.914199829E0,-2.298199892E0,9.950000048E-2
2.494400000E1,2.464900017E0,-1.368799925E0,-6.269999593E-2
2.496400000E1,1.341499925E0,7.195000052E-1,7.063999772E-1
2.498400000E1,-4.488999844E-1,2.096400023E0,2.526299953E0
2.500400000E1,-2.629499912E0,2.773000002E0,4.521699905E0
2.502400000E1,-5.141299725E0,3.473199844E0,4.910099983E0
2.504400000E1,-6.798299789E0,4.527400017E0,1.872599959E0
2.506400000E1,-4.395499706E0,3.921099901E0,1.444499969E0
2.508400000E1,-2.785699844E0,3.745499849E0,3.945499897E0
2.510400000E1,-5.758499622E0,3.441299915E0,4.584000111E0
2.512400000E1,-5.374000072E0,1.476699948E0,2.136199951E0
2.514400625E1,-1.476199985E0,2.812999785E-1,-1.389699936E0
2.517400000E1,2.361599922E0,-1.656299949E0,-5.020299911E0
2.519400000E1,8.269000053E-1,-2.685699940E0,-3.401700020E0
2.521400000E1,-2.346600056E0,-2.903399944E0,-2.518299818E0
2.523400000E1,-4.319299698E0,-2.592000008E0,-2.030200005E0
2.525400000E1,-2.320600033E0,-2.504299879E0,-2.344699860E0
2.527400000E1,4.221999943E-1,-1.324899912E0,-1.938699961E0
2.529400000E1,1.776699901E0,-7.800999880E-1,-1.266699910E0
2.531400000E1,2.077399969E0,1.261999905E-1,-1.575099945E0
2.533400000E1,2.672899961E0,1.089699984E0,-2.739999890E-1
2.535400000E1,3.451699972E0,2.092099905E0,1.408599973E0
2.537400000E1,4.124499798E0,2.995399952E0,1.553900003E0
2.539400000E1,4.818299770E0,3.057199955E0,-3.969999775E-2
2.541400000E1,5.347799778E0,2.379499912E0,-1.578199983E0
2.543400156E1,5.517999649E0,1.200799942E0,-1.873499990E0
2.545400156E1,5.129699707E0,5.169000030E-1,-1.606400013E0
2.548400000E1,2.417299986E0,1.476999968E-1,-3.849999905E-1
2.550400000E1,-4.950999916E-1,-2.576999962E-1,1.308099985E0
2.552400000E1,-4.059499741E0,-2.632900000E0,3.458299875E0
2.554400000E1,-8.585700035E0,-4.033100128E0,3.053699970E0
2.556400000E1,-8.035300255E0,-2.571199894E0,8.926599503E0
2.558400000E1,-3.239899874E0,1.026099920E0,1.026900005E1
2.560400156E1,-2.407099962E0,2.064199924E0,8.353799820E0
2.563400000E1,-1.893899918E0,-7.136999965E-1,1.516699910E0
2.565400000E1,4.725999832E-1,-2.376699924E0,-2.704499960E0
2.567400000E1,1.163200021E0,-4.898900032E0,-3.586999893E0
2.569400000E1,-1.090600014E0,-5.440299988E0,-5.979399681E0
2.571400156E1,-2.796200037E0,-2.862099886E0,-7.256299973E0
2.573400156E1,-2.561699867E0,4.329999909E-2,-5.651499748E0
2.576400625E1,-1.024899960E0,2.583899975E0,-4.394899845E0
2.579400000E1,1.812299967E0,3.486599922E0,-9.533999562E-1
2.581400000E1,3.538199902E0,3.842599869E0,-7.578999996E-1
2.583400000E1,4.304599762E0,3.310199976E0,9.066999555E-1
2.585400000E1,4.788399696E0,1.999399900E0,3.112499952E0
2.587400000E1,4.575900078E0,8.446999788E-1,3.458699942E0
2.589400000E1,3.987999916E0,-1.697999984E-1,2.717000008E0
2.591400000E1,3.638000011E0,-1.131600022E0,1.013499975E0
2.593400156E1,4.064099789E0,-1.777099967E0,-9.118999839E-1
2.596400000E1,3.797799826E0,-6.629999876E-1,-1.050400019E0
2.598400000E1,2.249899864E0,7.006999850E-1,-3.164999783E-1
2.600400000E1,-4.329999909E-2,1.593199968E0,1.235499978E0
2.602400000E1,-3.103399992E0,2.344399929E0,3.647199869E0
2.604400000E1,-6.490399837E0,3.245699883E0,6.066799641E0
2.606400000E1,-8.247099876E0,5.033099651E0,4.968299866E0
2.608400000E1,-4.434199810E0,5.086800098E0,3.691799879E0
2.610400000E1,-3.458799839E0,4.425300121E0,4.530399799E0
2.612400000E1,-6.765799999E0,3.321099997E0,3.010200024E0
2.614400000E1,-5.223399639E0,1.752599955E0,-3.452999890E-1
2.616400000E1,-1.247399926E0,5.200999975E-1,-2.793499947E0
2.618400000E1,1.436200023E0,-4.581999779E-1,-5.857599735E0
2.620400000E1,2.417899847E0,-2.348599911E0,-3.185799837E0
2.622400000E1,-2.524999976E-1,-3.402599812E0,-9.958999753E-1
2.624400000E1,-3.795599937E0,-3.734499931E0,-1.272799969E0
2.626400000E1,-3.715899944E0,-4.019400120E0,-3.088599920E0
2.628400000E1,6.057999730E-1,-2.825700045E0,-2.725299835E0
2.630400000E1,3.510099888E0,-1.689199924E0,-1.734200001E0
2.632400000E1,4.211999893E0,-6.279999614E-1,-2.120199919E0
2.634400000E1,4.106100082E0,8.775999546E-1,-8.310999870E-1
2.636400000E1,3.555699825E0,2.623699903E0,1.290399909E0
2.638400000E1,3.014899969E0,4.249599934E0,1.226099968E0
2.640400000E1,2.755300045E0,4.868099689E0,-2.126999944E-1
2.642400000E1,3.496099949E0,3.666199923E0,-2.900999784E-1
2.644400000E1,3.978299856E0,1.182500005E0,-4.187999964E-1
2.646400000E1,3.248600006E0,2.083999962E-1,-3.529999852E-1
2.648400000E1,2.335599899E0,-6.502000093E-1,2.273999900E-1
2.650400000E1,2.020999938E-1,-9.643999934E-1,2.359699965E0
2.652400000E1,-2.980599880E0,-2.106999874E0,4.906499863E0
2.654400000E1,-6.192499638E0,-2.851399899E0,4.729499817E0
2.656400000E1,-6.343100071E0,-3.478999853E0,6.491799831E0
2.658400000E1,-3.280200005E0,-3.100999832E0,8.498899460E0
2.660400000E1,-2.035099983E0,-2.305999994E-1,6.927399635E0
2.662400000E1,-3.209899902E0,-4.560000002E-1,3.117100000E0
2.664400000E1,-1.582899928E0,-1.096899986E0,-7.581999898E-1
2.666400000E1,-7.199999690E-2,-1.641299963E0,-3.561199903E0
2.668400000E1,-1.740000024E-2,-3.668299913E0,-5.327099800E0
2.670400000E1,-2.292999983E0,-3.043699980E0,-8.336599350E0
2.672400000E1,-2.673399925E0,-5.691999793E-1,-7.579899788E0
2.674400000E1,-2.050299883E0,1.444700003E0,-5.783199787E0
2.676400000E1,-7.050999999E-1,2.466799974E0,-3.744699955E0
2.678400000E1,1.159500003E0,2.679299831E0,-1.679299951E0
2.680400000E1,2.780599833E0,3.456399918E0,-6.966999769E-1
2.682400000E1,4.299499989E0,2.842700005E0,5.475999713E-1
2.684400000E1,4.943900108E0,1.939000010E0,2.494599819E0
2.686400000E1,5.334399700E0,7.286999822E-1,3.891199827E0
2.688400000E1,4.465099812E0,-1.145999953E-1,3.421399832E0
2.690400000E1,3.588199854E0,-1.115700006E0,2.170599937E0
2.692400000E1,3.106499910E0,-1.544899940E0,-1.039999947E-1
2.694400000E1,3.098999977E0,-8.611999750E-1,-6.277999878E-1
2.696400000E1,2.530099869E0,4.204999804E-1,2.122999877E-1
2.698400000E1,8.937999606E-1,1.804399967E0,1.191599965E0
2.700400000E1,-1.149399996E0,2.696499825E0,2.724400043E0
2.702400000E1,-3.447499990E0,3.345700026E0,4.560699940E0
2.704400000E1,-4.982199669E0,4.012799740E0,4.869499683E0
2.706400156E1,-5.642499924E0,4.781499863E0,1.995999932E0
2.709400000E1,-2.619699955E0,4.414700031E0,2.261499882E0
2.711400000E1,-5.041399956E0,4.419399738E0,4.627899647E0
2.713400000E1,-6.075799942E0,2.477200031E0,3.202299833E0
2.715400000E1,-1.680599928E0,-2.362999916E-1,-4.518999755E-1
2.717400000E1,1.553200006E0,-1.526799917E0,-3.915999889E0
2.719400000E1,1.538100004E0,-2.093299866E0,-5.274399757E0
2.721400000E1,-1.313799977E0,-2.918799877E0,-3.104199886E0
2.723400000E1,-4.627999783E0,-2.998699903E0,-2.088999987E0
2.725400000E1,-4.528699875E0,-3.056099892E0,-1.067199945E0
2.727400000E1,-8.353999853E-1,-2.226999998E0,-9.607999921E-1
2.729400000E1,2.158900023E0,-1.164799929E0,-1.927299976E0
2.731400000E1,3.329299927E0,-3.662000000E-1,-2.038599968E0
2.733400000E1,3.768699884E0,7.832999825E-1,-1.752099991E0
2.735400000E1,3.654699802E0,1.925099969E0,4.199999869E-1
2.737400000E1,3.453199863E0,3.234999895E0,1.152400017E0
2.739400000E1,3.644999981E0,3.869599819E0,2.866999805E-1
2.741400000E1,4.497999668E0,2.960899830E0,-5.135999918E-1
2.743400000E1,4.934799671E0,1.381399989E0,-5.212999582E-1
2.745400156E1,4.705499649E0,4.635999799E-1,-5.364999771E-1
2.748400000E1,2.385599852E0,4.739999771E-2,9.099999666E-1
2.750400000E1,-1.066799998E0,-3.217000067E-1,3.239399910E0
2.752400000E1,-5.326699734E0,-1.283800006E0,5.290800095E0
2.754400000E1,-8.019100189E0,-2.578199863E0,5.425600052E0
2.756400000E1,-5.561100006E0,-2.372999907E0,9.035699844E0
2.758400000E1,-1.035599947E0,-3.481999934E-1,9.481699944E0
2.760400000E1,-2.551199913E0,2.219999880E-1,5.984499931E0
2.762400000E1,-3.421299934E0,-9.764999747E-1,3.007999957E-1
2.764400000E1,-1.314700007E0,-1.973299980E0,-3.710299969E0
2.766400000E1,-5.600999594E-1,-3.217399836E0,-4.632699966E0
2.768400000E1,-2.859599829E0,-2.632900000E0,-6.836899757E0
2.770400000E1,-3.632299900E0,1.393999904E-1,-8.750299454E0
2.772400000E1,-2.098799944E0,1.055699944E0,-6.738899708E0
2.774400000E1,-1.089100003E0,1.937699914E0,-5.287199974E0
2.776400000E1,5.299000144E-1,2.353499889E0,-2.842499971E0
2.778400000E1,2.220799923E0,2.974900007E0,-1.020300031E0
2.780400000E1,4.681099892E0,2.921900034E0,1.036999971E-1
2.782400000E1,5.747099876E0,2.315000057E0,1.035699964E0
2.784400000E1,6.487699986E0,9.796999693E-1,3.161199808E0
2.786400000E1,5.586299896E0,-3.929999843E-2,3.595899820E0
2.788400000E1,3.967399836E0,-9.203999639E-1,2.040799856E0
2.790400000E1,2.960799932E0,-1.721599936E0,-7.119999826E-2
2.792400000E1,2.514600039E0,-1.543399930E0,-8.395999670E-1
2.794400000E1,2.131299973E0,1.659999974E-2,-1.868999898E-1
2.796400000E1,6.222000122E-1,1.485299945E0,1.014199972E0
2.798400000E1,-2.049399853E0,2.543900013E0,2.707099915E0
2.800400000E1,-3.973999977E0,3.110199928E0,5.431200027E0
2.802400000E1,-4.692800045E0,4.430699825E0,6.504999638E0
2.804400000E1,-4.589200020E0,6.074800014E0,3.641199827E0
2.806400000E1,-1.879899979E0,5.214499950E0,2.997999907E0
2.808400000E1,-2.487499952E0,4.178599834E0,5.170499802E0
2.810400000E1,-4.687699795E0,2.919899940E0,2.625699997E0
2.812400000E1,-1.642699957E0,2.219999880E-1,-4.615999758E-1
2.814400000E1,1.254299998E0,-1.109699965E0,-5.024600029E0
2.816400000E1,-1.472000033E-1,-1.786099911E0,-6.660699844E0
2.818400000E1,-3.646600008E0,-3.044600010E0,-4.085400105E0
2.820400000E1,-5.588500023E0,-3.844999790E0,-2.126899958E0
2.822400000E1,-5.503599644E0,-2.363299847E0,-8.093999624E-1
2.824400000E1,-2.263099909E0,-1.277799964E0,-7.256999612E-1
2.826400000E1,8.004999757E-1,-9.879999757E-1,-1.231400013E0
2.828400000E1,1.885499954E0,-2.644999921E-1,2.082999945E-1
2.830400000E1,2.794999838E0,1.062699914E0,-4.838999808E-1
2.832400000E1,4.034399986E0,1.854299903E0,-2.290000021E-2
2.834400000E1,4.783899784E0,2.908299923E0,4.430999756E-1
2.836400000E1,4.947499752E0,3.968499899E0,1.569999941E-2
2.838400000E1,5.165100098E0,4.306499958E0,-2.350100040E0
2.840400000E1,5.548699856E0,3.587199926E0,-3.584599972E0
2.842400000E1,5.761099815E0,2.082499981E0,-2.005399942E0
2.844400000E1,4.101399899E0,1.429999948E0,-4.391999841E-1
2.846400000E1,7.170999646E-1,1.924799919E0,1.548099995E0
2.848400000E1,-2.777799845E0,-3.097999990E-1,2.971099854E0
2.850400000E1,-6.868799686E0,-5.471999645E0,6.470099926E0
2.852400000E1,-1.121469975E1,-6.143599987E0,7.480199814E0
2.854400000E1,-4.801199913E0,-3.266700029E0,1.020619965E1
2.856400000E1,-1.293900013E0,-4.169799805E0,7.024399757E0
2.858400000E1,-3.344799995E0,-2.144199848E0,1.145099998E0
2.860400000E1,-6.880999804E-1,-7.414000034E-1,-1.287699938E0
2.862400000E1,2.048799992E0,-1.854499936E0,-2.525899887E0
2.864400000E1,3.972999752E-1,-1.267300010E0,-4.433199883E0
2.866400000E1,-3.901599884E0,3.252999783E-1,-8.949899673E0
2.868400000E1,-4.763700008E0,1.589199901E0,-1.025430012E1
2.870400000E1,-1.806999922E0,2.115999937E0,-7.878899574E0
2.872400000E1,9.753999710E-1,2.667399883E0,-4.536600113E0
2.874400000E1,3.067699909E0,2.671700001E0,-1.447499990E0
2.876400000E1,4.624199867E0,2.285699844E0,8.219999671E-1
2.878400000E1,5.394999981E0,7.426999807E-1,3.090799809E0
2.880400000E1,4.567399979E0,-2.944999933E-1,4.733699799E0
2.882400000E1,3.475899935E0,-1.704299927E0,4.422800064E0
2.884400000E1,3.099299908E0,-2.507400036E0,2.460199833E0
2.886400000E1,4.072499752E0,-1.600899935E0,5.508999825E-1
2.888400000E1,4.906399727E0,-6.089999676E-1,-6.412999630E-1
2.890400000E1,3.885999918E0,1.008700013E0,-1.151999980E-1
2.892400000E1,1.706499934E0,2.913499832E0,8.294000030E-1
2.894400000E1,-1.031599998E0,4.132299900E0,2.596999884E0
2.896400000E1,-4.265599728E0,4.686999798E0,5.541999817E0
2.898400000E1,-6.902599812E0,6.120199680E0,5.720799923E0
2.900400000E1,-6.531399727E0,6.973799706E0,1.801999927E0
2.902400000E1,-3.082099915E0,5.866199970E0,1.917499900E0
2.904400000E1,-3.981499910E0,4.697700024E0,4.443699837E0
2.906400000E1,-5.718699932E0,2.297499895E0,3.906199932E0
2.908400000E1,-2.611500025E0,-4.717999995E-1,-1.339999959E-2
2.910400000E1,6.289999932E-2,-1.569000006E0,-5.215799809E0
2.912400000E1,2.060000040E-2,-3.461499929E0,-5.700699806E0
2.914400000E1,-2.932699919E0,-4.883500099E0,-4.403500080E0
2.916400000E1,-6.431999683E0,-4.688199997E0,-2.708499908E0
2.918400000E1,-5.100500107E0,-3.688699961E0,-2.035599947E0
2.920400000E1,-5.909999609E-1,-2.822700024E0,-1.521499991E0
2.922400000E1,3.639699936E0,-1.803799987E0,-1.489000022E-1
2.924400000E1,4.763799667E0,-2.265999913E-1,-4.969999790E-1
2.926400000E1,5.070799828E0,1.426899910E0,8.009999990E-2
2.928400000E1,4.844899654E0,2.938999891E0,-8.769999444E-2
2.930400000E1,4.357599735E0,4.835799694E0,-4.129999876E-1
2.932400000E1,4.260699749E0,6.145799637E0,-1.037500024E0
2.934400000E1,5.299799919E0,5.532000065E0,-4.346999824E-1
2.936400000E1,6.427099705E0,2.666999817E0,5.112000108E-1
2.938400000E1,4.438399792E0,1.325399995E0,2.662999928E-1
2.940400000E1,3.147999942E-1,2.393999994E-1,1.399299979E0
2.942400000E1,-4.143300056E0,-2.592499971E0,4.170300007E0
2.944400000E1,-7.594299793E0,-6.629299641E0,5.979499817E0
2.946400000E1,-7.635900021E0,-6.664299965E0,5.547999859E0
2.948400000E1,-2.954299927E0,-3.874199867E0,9.934100151E0
2.950400000E1,-7.486000061E-1,2.290999889E-1,8.912199974E0
2.952400000E1,-1.805999994E0,-5.938999653E-1,3.821399927E0
2.954400000E1,-1.172999978E0,-1.860700011E0,-1.957799911E0
2.956400000E1,-1.161199927E0,-1.754199982E0,-4.285599709E0
2.958400000E1,-2.610999823E0,-4.267300129E0,-7.356599808E0
2.960400000E1,-5.028599739E0,-4.417200089E0,-1.061499977E1
2.962400000E1,-2.959699869E0,-1.700299978E0,-9.319600105E0
2.964400000E1,-1.932999939E-1,-6.327999830E-1,-6.744400024E0
2.966400000E1,1.230099916E0,5.162000060E-1,-4.255199909E0
2.968400000E1,1.907299995E0,1.464100003E0,-1.246999979E0
2.970400000E1,3.319799900E0,2.110699892E0,-1.167799950E0
2.972400000E1,4.281699657E0,1.746999979E0,9.476999640E-1
2.974400000E1,4.824699879E0,9.815999866E-1,3.846099854E0
2.976400000E1,4.329800129E0,2.824999988E-1,4.754399776E0
2.978400000E1,4.194399834E0,-6.092999578E-1,3.380100012E0
2.980400000E1,5.397099972E0,-1.667199969E0,6.869999766E-1
2.982400000E1,4.998699665E0,-3.183999956E-1,-1.469200015E0
2.984400000E1,3.981299877E0,9.523999691E-1,-6.008999944E-1
2.986400000E1,1.742199898E0,2.510999918E0,9.030999541E-1
2.988400000E1,-1.639899969E0,4.256199837E0,2.685400009E0
2.990400000E1,-5.028999805E0,5.395499706E0,3.724299908E0
2.992400000E1,-6.535299778E0,6.131299973E0,2.944299936E0
2.994400000E1,-5.443899632E0,6.002099991E0,2.104500055E0
2.996400000E1,-3.405299902E0,4.614599705E0,5.712299824E0
2.998400000E1,-3.939299822E0,1.996999979E0,1.038369942E1
3.000400000E1,-5.335700035E0,7.609999776E-1,4.712399960E0
3.002400000E1,-1.189499974E0,-1.574299932E0,1.642999947E-1
3.004400000E1,2.994999886E-1,-6.746000051E-1,-8.217100143E0
3.006400000E1,1.847999990E-1,-2.361700058E0,-9.615699768E0
3.008400000E1,-3.210299969E0,-3.355000019E0,-6.830199718E0
3.010400000E1,-5.136199951E0,-3.406699896E0,-2.259500027E0
3.012400000E1,-4.826299667E0,-2.232300043E0,-1.688099980E0
3.014400000E1,-1.589100003E0,-1.054399967E0,-2.725199938E0
3.016400000E1,2.706399918E0,-2.807999849E-1,-2.053499937E0
3.018400000E1,4.892600060E0,1.075999960E-1,-1.480000000E-2
3.020400000E1,4.269400120E0,1.248199940E0,1.165300012E0
3.022400000E1,4.299200058E0,2.526000023E0,-6.553999782E-1
3.024400000E1,4.259099960E0,4.316499710E0,-7.217999697E-1
3.026400000E1,4.166899681E0,5.700699806E0,1.509999949E-2
3.028400000E1,5.564099789E0,4.049399853E0,-5.766000152E-1
3.030400000E1,6.205399990E0,1.801999927E0,-5.776000023E-1
3.032400000E1,5.087699890E0,5.769999623E-1,-4.347999990E-1
3.034400000E1,2.583600044E0,-3.759000003E-1,5.977999568E-1
3.036400000E1,-1.863199949E0,-1.874099970E0,3.026000023E0
3.038400000E1,-6.136199951E0,-5.874000072E0,4.421700001E0
3.040400000E1,-9.307000160E0,-7.966499805E0,4.704400063E0
3.042400000E1,-6.840199947E0,-5.513700008E0,1.073029995E1
3.044400000E1,-3.178699970E0,1.631099939E0,9.830499649E0
3.046400000E1,-2.014899969E0,1.315599918E0,6.531899929E0
3.048400000E1,-1.826900005E0,-4.695999920E-1,1.099799991E0
3.050400000E1,-1.019299984E0,-1.794299960E0,-4.858599663E0
3.052400000E1,-1.787099957E0,-5.129600048E0,-6.176899910E0
3.054400000E1,-4.081099987E0,-5.286799908E0,-1.034579945E1
3.056400000E1,-2.136899948E0,-1.338899970E0,-9.858599663E0
3.058400000E1,7.279999852E-1,1.782999933E-1,-7.673099995E0
3.060400000E1,7.118999958E-1,1.458199978E0,-6.557899952E0
3.062400000E1,8.035999537E-1,2.280900002E0,-3.642099857E0
3.064400000E1,1.636799932E0,3.128700018E0,-2.369999886E0
3.066400000E1,3.294899940E0,3.250900030E0,-1.911000013E-1
3.068400000E1,3.992799997E0,2.564299822E0,3.792999983E0
3.070400000E1,4.548500061E0,1.180799961E0,5.720399857E0
3.072400000E1,4.566899776E0,-5.381000042E-1,6.474499702E0
3.074400000E1,4.204800129E0,-1.968099952E0,3.047299862E0
3.076400000E1,4.927700043E0,-2.379799843E0,-1.133099914E0
3.078400000E1,5.034599781E0,-1.239599943E0,-1.389599919E0
3.080400000E1,3.897499800E0,7.912999988E-1,2.461999953E-1
3.082400000E1,8.999999762E-1,2.645699978E0,2.025500059E0
3.084400000E1,-2.660599947E0,3.928999901E0,3.741099834E0
3.086400000E1,-6.122200012E0,5.616199970E0,4.509500027E0
3.088400000E1,-7.555199623E0,7.031999588E0,2.059499979E0
3.090400000E1,-4.825099945E0,6.086999893E0,1.146799922E0
3.092400000E1,-2.340299845E0,3.092799902E0,7.150799751E0
3.094400000E1,-4.971600056E0,8.499999531E-3,1.077279949E1
3.096400000E1,-3.925299883E0,-9.468999505E-1,1.819099903E0
3.098400000E1,-2.970999777E-1,1.542000026E-1,-8.015099525E0
3.100400000E1,5.281999707E-1,5.089999735E-2,-1.160349941E1
3.102400000E1,-4.377000034E-1,-2.701599836E0,-5.742199898E0
3.104400000E1,-3.862399817E0,-3.729699850E0,-1.373399973E0
3.106400000E1,-6.274999619E0,-2.771899939E0,1.033599973E0
3.108400000E1,-4.019700050E0,-2.518499851E0,-1.293599963E0
3.110400000E1,-1.195999980E-1,-2.687099934E0,-2.893999815E0
3.112400000E1,2.195400000E0,-2.875999928E0,-2.067399979E0
3.114400000E1,3.003299952E0,-1.719799995E0,1.986999959E-1
3.116400000E1,4.288599968E0,-5.871999860E-1,2.317999899E-1
3.118400000E1,5.412299633E0,7.348999977E-1,6.459999681E-1
3.120400000E1,5.843999863E0,2.354599953E0,1.614799976E0
3.122400000E1,5.843599796E0,3.821099997E0,2.324000001E-1
3.124400000E1,6.135999680E0,4.263700008E0,-4.894999862E-1
3.126400000E1,6.569900036E0,3.226399899E0,-6.987999678E-1
3.128400000E1,5.001699924E0,2.161399841E0,3.576999903E-1
3.130400000E1,1.093299985E0,1.592899919E0,1.272099972E0
3.132400000E1,-4.046700001E0,-8.258999586E-1,3.524899960E0
3.134400000E1,-9.530200005E0,-4.054100037E0,3.556499958E0
3.136400000E1,-9.843699455E0,-4.702699661E0,6.455100060E0
3.138400000E1,-4.128099918E0,-1.042999983E0,1.085899925E1
3.140400000E1,-1.619599938E0,7.159000039E-1,1.103919983E1
3.142400000E1,-3.933599949E0,-6.230999827E-1,4.421000004E0
3.144400000E1,-2.707999945E0,-1.784199953E0,-2.470999956E0
3.146400000E1,-1.116400003E0,-3.544899940E0,-4.557300091E0
3.148400000E1,-1.837700009E0,-6.249300003E0,-4.377500057E0
3.150400000E1,-3.080199957E0,-3.137199879E0,-7.513999939E0
3.152400000E1,-1.336699963E0,-3.292999864E-1,-7.062299728E0
3.154400000E1,3.920000046E-2,2.710999846E-1,-5.954299927E0
3.156400000E1,8.557999730E-1,1.672899961E0,-5.078999996E0
3.158400000E1,1.952199936E0,2.497499943E0,-2.255300045E0
3.160400000E1,4.021500111E0,2.359899998E0,-1.148000002E0
3.162400000E1,5.684499741E0,1.712000012E0,1.139599919E0
3.164400000E1,5.851799965E0,1.347000003E0,2.638099909E0
3.166400000E1,5.727099895E0,1.661999971E-1,3.558599949E0
3.168400000E1,4.764499664E0,-1.648000002E0,2.369699955E0
3.170400000E1,3.621999979E0,-2.413699865E0,-1.067600012E0
3.172400000E1,3.123899937E0,-1.389699936E0,-1.861400008E0
3.174400000E1,2.607499838E0,5.634999871E-1,-2.698000073E-1
3.176400000E1,9.181999564E-1,1.908599973E0,2.817499876E0
3.178400000E1,-2.194200039E0,3.157500029E0,5.054399967E0
3.180400000E1,-4.749300003E0,3.638899803E0,6.594500065E0
3.182400000E1,-5.881499767E0,3.988999844E0,7.129600048E0
3.184400000E1,-4.539599895E0,3.724699974E0,4.214099884E0
3.186400000E1,-2.705499887E0,3.392999887E0,4.537199974E0
3.188400000E1,-5.561100006E0,2.668999910E0,4.952300072E0
3.190400000E1,-3.967499971E0,1.939999908E-1,6.958000064E-1
3.192400000E1,-1.986999959E-1,-1.452299953E0,-5.645999908E0
3.194400000E1,1.764999926E-1,-2.944000006E0,-9.253899574E0
3.196400000E1,-2.238699913E0,-4.586199760E0,-5.164799690E0
3.198400000E1,-5.369499683E0,-4.112899780E0,-3.421199799E0
3.200400000E1,-5.084499836E0,-2.488199949E0,-3.608199835E0
3.202400000E1,-1.750199914E0,-2.114399910E0,-2.625299931E0
3.204400000E1,1.367999911E0,-1.719499946E0,-1.292400002E0
3.206400000E1,2.658499956E0,-2.958000004E-1,6.033999920E-1
3.208400000E1,3.462100029E0,9.280999899E-1,1.508799911E0
3.210400000E1,4.749799728E0,1.378899932E0,8.761999607E-1
3.212400000E1,4.920899868E0,3.029899836E0,1.825299978E0
3.214400000E1,5.039700031E0,4.151099682E0,1.397599936E0
3.216400000E1,5.520400047E0,4.190700054E0,-9.640000015E-2
3.218400000E1,5.723000050E0,3.590999842E0,-1.249099970E0
3.220400000E1,5.166800022E0,2.184599876E0,-1.033100009E0
3.222400000E1,2.961999893E0,1.210899949E0,-2.421999872E-1
3.224400000E1,1.603000015E-1,6.879000068E-1,1.047799945E0
3.226400000E1,-3.064399958E0,-1.490000010E0,3.238799810E0
3.228400000E1,-8.052700043E0,-4.383899689E0,3.576799870E0
3.230400000E1,-9.453399658E0,-3.386899948E0,8.288999557E0
3.232400000E1,-3.031100035E0,-2.176800013E0,1.027799988E1
3.234400000E1,-2.344199896E0,-2.380199909E0,8.868100166E0
3.236400000E1,-3.506699800E0,-1.620499969E0,3.551800013E0
3.238400156E1,-1.694199920E0,-1.795099974E0,-3.409399986E0
3.241400000E1,-2.468600035E0,-3.787799835E0,-4.030900002E0
3.243400000E1,-4.334700108E0,-1.723899961E0,-8.359000206E0
3.245400156E1,-2.958699942E0,7.283999920E-1,-8.436699867E0
3.248400000E1,9.361000061E-1,1.972299933E0,-6.506299973E0
3.250400000E1,2.081799984E0,2.237099886E0,-4.068399906E0
3.252400000E1,2.597599983E0,2.689899921E0,-1.865399957E0
3.254400000E1,4.564699650E0,2.184299946E0,-6.342999935E-1
3.256400000E1,5.200399876E0,1.353199959E0,2.315599918E0
3.258400000E1,4.854099751E0,5.458999872E-1,4.066100121E0
3.260400000E1,3.709599972E0,-6.173999906E-1,4.717899799E0
3.262400000E1,3.796299934E0,-2.220799923E0,1.987899899E0
3.264400000E1,4.424600124E0,-2.889400005E0,-1.838499904E0
3.266400469E1,4.917200089E0,-1.793299913E0,-2.653599977E0
3.269400000E1,2.674099922E0,1.189199924E0,-2.435999960E-1
3.271400000E1,-1.158999950E-1,2.796299934E0,2.705600023E0
3.273400156E1,-3.396899939E0,3.660899878E0,5.307899952E0
3.276400000E1,-7.006700039E0,3.646299839E0,7.071300030E0
3.278400000E1,-5.616799831E0,3.408699989E0,3.785499811E0
3.280400000E1,-3.168099880E0,2.562700033E0,4.342599869E0
3.282400000E1,-5.699199677E0,2.428299904E0,4.199399948E0
3.284400000E1,-4.122799873E0,1.022300005E0,2.667999864E-1
3.286400000E1,1.061999947E-1,-5.549999699E-2,-4.102299690E0
3.288400000E1,1.976399899E0,-2.642000020E-1,-8.246299744E0
3.290400000E1,9.776999950E-1,-1.523899913E0,-4.922599792E0
3.292400000E1,-2.747099876E0,-1.919999957E0,-2.574300051E0
3.294400000E1,-4.428999901E0,-2.246500015E0,-1.952799916E0
3.296400000E1,-2.566200018E0,-2.185400009E0,-1.468899965E0
3.298400000E1,4.773999751E-1,-2.223999977E0,-8.858999610E-1
3.300400000E1,1.641299963E0,-1.760599971E0,-6.839999557E-2
3.302400000E1,2.198600054E0,-1.867999882E-1,6.899999976E-1
3.304400000E1,2.980499983E0,7.773999572E-1,7.762999535E-1
3.306400000E1,3.339099884E0,2.632599831E0,2.300199986E0
3.308400000E1,4.227900028E0,3.439699888E0,1.843199968E0
3.310400000E1,4.997600079E0,3.423799992E0,-9.139999747E-2
3.312400000E1,5.563899994E0,2.832499981E0,-1.288100004E0
3.314400000E1,5.549399853E0,1.402300000E0,-1.175899982E0
3.316400000E1,3.650300026E0,6.165999770E-1,-5.139999986E-1
3.318400000E1,6.067000031E-1,3.421999812E-1,8.172999620E-1
3.320400000E1,-3.262099981E0,-1.819299936E0,3.821099997E0
3.322400000E1,-8.185599327E0,-3.345799923E0,3.012499809E0
3.324400000E1,-7.429800034E0,-1.890399933E0,8.597399712E0
3.326400000E1,-3.027099848E0,3.689999878E-2,1.086369991E1
3.328400000E1,-3.353299856E0,1.099300027E0,9.267299652E0
3.330400000E1,-3.700599909E0,-1.152999997E-1,2.917199850E0
3.332400000E1,-1.459299922E0,-1.378899932E0,-4.185599804E0
3.334400000E1,-9.978999496E-1,-3.892399788E0,-5.799799919E0
3.336400000E1,-2.960199833E0,-4.959399700E0,-7.704299927E0
3.338400000E1,-3.320799828E0,-9.121999741E-1,-9.774199486E0
3.340400000E1,-5.385999680E-1,5.218999982E-1,-6.665999889E0
3.342400000E1,4.461999834E-1,2.217599869E0,-4.586299896E0
3.344400000E1,6.819999814E-1,2.982899904E0,-3.650599957E0
3.346400000E1,2.513799906E0,3.023399830E0,-1.081599951E0
3.348400000E1,3.906599998E0,3.539999962E0,-4.159999788E-1
3.350400000E1,4.189000130E0,3.227900028E0,1.560400009E0
3.352400000E1,4.309799671E0,2.194000006E0,5.068299770E0
3.354400000E1,4.770499706E0,-3.024999797E-1,6.509599686E0
3.356400000E1,4.227499962E0,-2.518199921E0,2.219599962E0
3.358400000E1,4.450200081E0,-3.546499968E0,-1.640399933E0
3.360400000E1,4.251899719E0,-2.715100050E0,-1.200899959E0
3.362400000E1,3.006299973E0,-7.943999767E-1,1.109399915E0
3.364400000E1,5.952999592E-1,1.060999990E0,2.931399822E0
3.366400000E1,-2.232199907E0,2.417199850E0,4.362100124E0
3.368400000E1,-4.822000027E0,3.461399794E0,5.330699921E0
3.370400000E1,-6.053899765E0,4.416199684E0,5.669600010E0
3.372400000E1,-4.640599728E0,4.418200016E0,2.471400023E0
3.374400000E1,-2.172299862E0,3.218099833E0,3.916699886E0
3.376400000E1,-5.025199890E0,2.632999897E0,3.950299978E0
3.378400000E1,-5.234299660E0,1.375000000E0,-3.716999888E-1
3.380400000E1,-1.854399920E0,1.127999946E-1,-2.951400042E0
3.382400000E1,7.127000093E-1,-4.214999974E-1,-7.200199604E0
3.384400000E1,1.731099963E0,-2.069799900E0,-5.207299709E0
3.386400000E1,-4.652999938E-1,-2.206399918E0,-2.848399878E0
3.388400000E1,-3.042500019E0,-1.727199912E0,-2.775699854E0
3.390400000E1,-2.797799826E0,-2.121500015E0,-3.840399981E0
3.392400000E1,-1.180400014E0,-1.713099957E0,-2.443799973E0
3.394400000E1,4.705999792E-1,-2.120399952E0,-9.017999768E-1
3.396400000E1,1.571599960E0,-9.275999665E-1,6.194999814E-1
3.398400000E1,2.242699862E0,9.057999849E-1,1.443599939E0
3.400400000E1,3.678099871E0,1.766699910E0,1.655699968E0
3.402400000E1,4.532000065E0,3.066200018E0,3.006599903E0
3.404400000E1,5.317199707E0,3.455600023E0,1.889599919E0
3.406400000E1,5.967299938E0,2.909499884E0,-8.339999616E-2
3.408404219E1,5.995299816E0,1.963699937E0,-8.186999559E-1
3.411400000E1,3.846799850E0,5.313000083E-1,-1.489999890E-1
3.413400000E1,5.856999755E-1,2.924000025E-1,1.076499939E0
3.415400000E1,-3.417799950E0,-1.740599990E0,3.972399950E0
3.417400000E1,-9.333499908E0,-3.467499971E0,3.516299963E0
3.419400000E1,-1.001639938E1,-2.601300001E0,8.109600067E0
3.421400000E1,-4.213399887E0,-3.909999877E-2,1.100059986E1
3.423400000E1,-1.224399924E0,8.065999746E-1,9.954400063E0
3.425400000E1,-3.209399939E0,1.168999970E-1,4.764100075E0
3.427400000E1,-1.899499893E0,-1.047399998E0,-2.250599861E0
3.429400000E1,-7.401999831E-1,-3.137300014E0,-5.514699936E0
3.431400000E1,-1.658999920E0,-6.082299709E0,-6.100599766E0
3.433400000E1,-3.105700016E0,-2.660599947E0,-1.005149937E1
3.435400000E1,-1.545899987E0,-1.027999967E-1,-9.319700241E0
3.437400000E1,1.049999986E-2,1.289999962E0,-6.427899837E0
3.439400000E1,1.008899927E0,2.621599913E0,-5.037499905E0
3.441400000E1,1.634499907E0,3.070999861E0,-1.279500008E0
3.443400000E1,3.488399982E0,3.249599934E0,-8.606999516E-1
3.445400156E1,4.479499817E0,2.749300003E0,1.409099936E0
3.448400000E1,4.846299648E0,1.144299984E0,5.169899940E0
3.450400000E1,4.640999794E0,-6.880999804E-1,5.127799988E0
3.452400000E1,4.703899860E0,-2.145299911E0,2.068199873E0
3.454400000E1,5.110399723E0,-3.048699856E0,-1.156700015E0
3.456400000E1,4.562500000E0,-1.716300011E0,-9.292999506E-1
3.458400000E1,2.923599958E0,4.829999804E-2,1.427299976E0
3.460400000E1,-1.059199929E0,1.749899983E0,4.311199665E0
3.462400000E1,-5.373300076E0,2.909299850E0,6.204099655E0
3.464400000E1,-7.251299858E0,4.042399883E0,6.560799599E0
3.466400000E1,-6.442199707E0,5.072199821E0,2.931999922E0
3.468400000E1,-2.917599916E0,4.025000095E0,3.251399994E0
3.470400000E1,-2.993099928E0,2.596400023E0,5.221699715E0
3.472400000E1,-5.050499916E0,1.801099896E0,1.584499955E0
3.474400000E1,-1.666199923E0,-7.651999593E-1,-1.161100030E0
3.476400000E1,4.363999963E-1,-1.065699935E0,-7.348099709E0
3.478400000E1,5.679999590E-1,-1.774699926E0,-7.942899704E0
3.480400000E1,-1.140200019E0,-2.157899857E0,-4.040400028E0
3.482400000E1,-3.414700031E0,-1.087999940E0,-5.245000124E-1
3.484400000E1,-3.600499868E0,-1.717499971E0,-1.626699924E0
3.486400000E1,-1.779500008E0,-2.099499941E0,-2.463799953E0
3.488400000E1,-3.639999777E-2,-2.845899820E0,-1.819799900E0
3.490400000E1,8.705999851E-1,-1.094599962E0,7.208999991E-1
3.492400000E1,2.248499870E0,5.442999601E-1,5.982999802E-1
3.494400000E1,3.408599854E0,2.484099865E0,1.937299967E0
3.496400000E1,4.262700081E0,3.998199940E0,1.716300011E0
3.498400000E1,5.214200020E0,3.979499817E0,2.644000053E-1
3.500400000E1,6.367599964E0,3.154199839E0,-1.189000010E0
3.502400000E1,6.941299915E0,1.891299963E0,-1.444100022E0
3.504400000E1,6.109399796E0,8.151999712E-1,-1.224099994E0
3.506400000E1,3.554999828E0,5.561000109E-1,-4.066999853E-1
3.508400000E1,-3.799999952E-1,3.050999939E-1,1.611400008E0
3.510400000E1,-5.459300041E0,-2.379999876E0,5.127799988E0
3.512400000E1,-1.057989979E1,-4.143199921E0,4.432199955E0
3.514400000E1,-7.162099838E0,-2.407899857E0,1.078269958E1
3.516400000E1,-1.392899990E0,-3.928000033E-1,1.038439941E1
3.518400000E1,-2.278399944E0,-9.146999717E-1,5.641200066E0
3.520400000E1,-1.956999898E0,-1.177099943E0,-9.082999825E-1
3.522400000E1,-6.348999739E-1,-2.420300007E0,-5.637099743E0
3.524400000E1,-1.149799943E0,-5.301199913E0,-5.901099682E0
3.526400156E1,-3.111199856E0,-3.239300013E0,-1.027439976E1
3.528400156E1,-2.477599859E0,1.090999991E-1,-8.914999962E0
3.530400156E1,-1.271899939E0,1.554799914E0,-6.509299755E0
3.532400156E1,-7.030000091E-1,3.357999802E0,-4.077600002E0
3.534400156E1,8.519999981E-1,3.522499800E0,-2.098099947E0
3.537400000E1,3.365899801E0,3.628700018E0,1.234399915E0
3.539400000E1,4.034800053E0,2.902699947E0,2.742799997E0
3.541400000E1,4.768399715E0,1.456099987E0,5.576600075E0
3.543400000E1,4.935199738E0,-8.968999982E-1,6.339599609E0
3.545400156E1,4.458799839E0,-2.852999926E0,2.452499866E0
3.548400000E1,4.414400101E0,-2.473599911E0,-1.597999930E-1
3.550400000E1,3.733099937E0,-8.755999804E-1,9.534999728E-1
3.552400000E1,1.337899923E0,5.123000145E-1,2.901999950E0
3.554400000E1,-2.131799936E0,1.579299927E0,5.040899754E0
3.556400000E1,-5.477999687E0,2.319200039E0,7.246999741E0
3.558400000E1,-6.926799774E0,3.500199795E0,6.090600014E0
3.560400000E1,-4.636199951E0,3.595199823E0,1.432799935E0
3.562400000E1,-1.914099932E0,3.357899904E0,1.002099991E0
3.564400000E1,-4.220600128E0,3.102200031E0,2.656599998E0
3.566400000E1,-4.752399921E0,1.954899907E0,4.147000015E-1
3.568400000E1,-1.169000030E0,-5.273999572E-1,-1.860099912E0
3.570400000E1,5.389999747E-1,-1.063799977E0,-7.976999760E0
3.572400000E1,1.104200006E0,-2.254199982E0,-6.018099785E0
3.574400000E1,-8.436999917E-1,-2.381799936E0,-2.303299904E0
3.576400000E1,-3.804499865E0,-2.517299891E0,-1.303000003E-1
3.578400000E1,-4.515199661E0,-3.323599815E0,-6.376999617E-1
3.580400000E1,-2.259399891E0,-3.399499893E0,-2.177799940E0
3.582400000E1,-2.536000013E-1,-3.407799959E0,-9.892999530E-1
3.584400000E1,1.413299918E0,-1.041000009E0,9.001999497E-1
3.586400000E1,2.892699957E0,8.859999776E-1,7.947999835E-1
3.588400000E1,3.962499857E0,2.480599880E0,1.222599983E0
3.590400000E1,4.318599701E0,4.105999947E0,1.165099978E0
3.592400000E1,5.245800018E0,4.206399918E0,-2.719999850E-2
3.594400000E1,6.654399872E0,3.361799955E0,-9.452999830E-1
3.596400000E1,6.381099701E0,2.291599989E0,-7.267000079E-1
3.598400000E1,4.462500095E0,1.546199918E0,-5.437999964E-1
3.600400000E1,2.040999889E0,1.056399941E0,1.677999943E-1
3.602400000E1,-6.785999537E-1,7.785999775E-1,1.284099936E0
3.604400000E1,-4.205500126E0,-1.963099957E0,4.236899853E0
3.606400000E1,-8.271699905E0,-5.321199894E0,5.259099960E0
3.608400000E1,-6.252099991E0,-2.476899862E0,9.020799637E0
3.610400000E1,-2.778499842E0,1.539999992E-2,7.937099934E0
3.612400000E1,-2.533200026E0,8.862999678E-1,6.336699963E0
3.614400000E1,-1.665199995E0,-6.133999825E-1,-8.808999658E-1
3.616400000E1,-2.531299829E0,-2.415899992E0,-4.697000027E0
3.618400000E1,-6.347799778E0,-3.208199978E0,-8.217399597E0
3.620400000E1,-5.978299618E0,3.294999897E-1,-1.162300014E1
3.622400000E1,-1.862999946E-1,-5.299999937E-2,-7.101599693E0
3.624400000E1,2.484799862E0,7.452999949E-1,-4.251899719E0
3.626400000E1,3.240299940E0,1.070599914E0,-1.948899984E0
3.628400000E1,3.737399817E0,1.121599913E0,-7.123000026E-1
3.630400000E1,4.828799725E0,1.351699948E0,-5.469999835E-2
3.632400000E1,5.701099873E0,5.805999637E-1,1.738600016E0
3.634400000E1,5.356800079E0,-1.661999971E-1,3.196899891E0
3.636400000E1,4.426099777E0,-1.385900021E0,3.189499855E0
3.638400000E1,3.618999958E0,-2.320099831E0,1.478899956E0
3.640400000E1,3.563799858E0,-2.507299900E0,1.739999950E-1
3.642400000E1,2.756000042E0,-1.465699911E0,2.026999891E-1
3.644400000E1,1.320299983E0,7.679999620E-2,1.732599974E0
3.646400000E1,-1.124599934E0,1.677599907E0,3.728099823E0
3.648400000E1,-3.228999853E0,2.518299818E0,5.004699707E0
3.650400000E1,-4.421099663E0,2.996500015E0,6.047999859E0
3.652400000E1,-5.354000092E0,4.404699802E0,3.668399811E0
3.654400000E1,-2.898900032E0,3.977099895E0,2.524799824E0
3.656400000E1,-2.102999926E0,2.961400032E0,4.672599792E0
3.658400000E1,-4.014599800E0,1.762599945E0,3.453199863E0
3.660400000E1,-1.436999917E0,-7.507999539E-1,5.119999871E-2
3.662400000E1,6.865999699E-1,-1.839800000E0,-4.797699928E0
3.664400000E1,-1.958999991E0,-4.634999931E-1,-1.068209934E1
3.666400000E1,-3.478199959E0,-1.848999977E0,-6.092999935E0
3.668400000E1,-5.514699936E0,-8.669999838E-1,-8.556999564E-1
3.670400000E1,-4.093899727E0,-1.686199903E0,8.842999935E-1
3.672400000E1,-8.392999768E-1,-2.279500008E0,-2.020799875E0
3.674400000E1,1.526099920E0,-2.932499886E0,-2.028699875E0
3.676400000E1,2.264699936E0,-2.013299942E0,-7.591999769E-1
3.678400000E1,3.362099886E0,-3.422999978E-1,5.324000120E-1
3.680400000E1,4.331699848E0,1.021299958E0,8.633999825E-1
3.682400156E1,4.724699974E0,2.460000038E0,1.269500017E0
3.685400156E1,5.306600094E0,3.653299809E0,-3.978999853E-1
3.688400156E1,6.260799885E0,2.208999872E0,-9.387999773E-1
3.691400000E1,3.365499973E0,1.093400002E0,3.269999921E-1
3.693400000E1,-1.279999912E-1,1.125499964E0,1.751500010E0
3.695400156E1,-4.345799923E0,-1.427999973E0,5.982699871E0
3.697400156E1,-9.180099487E0,-3.824100018E0,4.252099991E0
3.699400156E1,-7.377399921E0,-2.575500011E0,8.780699730E0
3.702400000E1,-2.034899950E0,-3.603000045E-1,8.444299698E0
3.704400000E1,-3.108599901E0,-6.444999576E-1,3.955799818E0
3.706400000E1,-1.634499907E0,-1.251500010E0,-3.095099926E0
3.708400000E1,-9.692999721E-1,-2.520200014E0,-6.293499947E0
3.710400000E1,-3.320899963E0,-3.589200020E0,-7.688899994E0
3.712400000E1,-4.797800064E0,-8.373999596E-1,-1.071539974E1
3.714400156E1,-1.207099915E0,2.199999988E-2,-8.028299332E0
3.716400156E1,7.491999865E-1,1.483399987E0,-5.043299675E0
3.719400000E1,2.265399933E0,1.960799932E0,-1.633000016E0
3.721400156E1,3.232399940E0,2.461400032E0,-4.296000004E-1
3.724400000E1,4.719299793E0,1.339999914E0,2.289599895E0
3.726400000E1,4.938699722E0,4.016999900E-1,4.946000099E0
3.728400000E1,4.225500107E0,-7.838999629E-1,5.639899731E0
3.730400000E1,4.416399956E0,-1.847899914E0,1.925799966E0
3.732400000E1,4.770199776E0,-1.491599917E0,-1.772599936E0
3.734400000E1,4.864999771E0,-3.346000016E-1,-1.429099917E0
3.736400000E1,2.899399996E0,1.136099935E0,4.056999981E-1
3.738400000E1,3.029999882E-2,2.145200014E0,3.070299864E0
3.740400000E1,-3.059399843E0,2.792599916E0,4.844500065E0
3.742400000E1,-5.556600094E0,3.098899841E0,6.192699909E0
3.744400000E1,-6.707099915E0,2.843499899E0,4.291399956E0
3.746400000E1,-4.338399887E0,1.745499969E0,3.320299864E0
3.748400000E1,-4.313899994E0,8.409000039E-1,5.243599892E0
3.750400000E1,-6.320099831E0,1.852099895E0,2.192299843E0
3.752400000E1,-2.582900047E0,1.086899996E0,-1.780099988E0
3.754400000E1,5.087999701E-1,7.653999925E-1,-6.703700066E0
3.756400000E1,8.722999692E-1,5.654000044E-1,-8.756500244E0
3.758400000E1,3.870999813E-1,-8.287000060E-1,-4.474999905E0
3.760400000E1,-2.307100058E0,-1.310799956E0,-1.662199974E0
3.762400000E1,-3.570999861E0,-2.055399895E0,-6.337999701E-1
3.764400000E1,-1.926099896E0,-1.914899945E0,-5.054999590E-1
3.766400000E1,7.501999736E-1,-2.230200052E0,-1.457499981E0
3.768400000E1,1.994899988E0,-1.446399927E0,-3.192999959E-1
3.770400000E1,2.801299810E0,-1.028999984E-1,5.507000089E-1
3.772400000E1,3.931399822E0,6.721000075E-1,5.083000064E-1
3.774400000E1,4.529999733E0,1.629599929E0,1.479499936E0
3.776400000E1,4.977699757E0,2.274499893E0,9.095999599E-1
3.778400000E1,5.453999996E0,2.871500015E0,5.899999756E-3
3.780400000E1,5.942699909E0,2.438299894E0,-1.159099936E0
3.782400156E1,5.076900005E0,1.277099967E0,-1.182899952E0
3.785400000E1,9.118999839E-1,6.334999800E-1,3.526999950E-1
3.787400000E1,-2.733500004E0,-3.631999791E-1,1.940199971E0
3.789400156E1,-7.208699703E0,-2.911099911E0,3.817999840E0
3.792400000E1,-6.115499973E0,-1.277699947E0,9.432999611E0
3.794400000E1,-2.889099836E0,-2.137999982E-1,8.874899864E0
3.796400000E1,-3.679999828E0,1.176299930E0,6.586199760E0
3.798400000E1,-2.117199898E0,1.818999946E-1,2.913999856E-1
3.800400156E1,-1.352899909E0,-2.661099911E0,-4.860199928E0
3.803400000E1,-3.837399960E0,-3.766699791E0,-9.781399727E0
3.805400000E1,-2.699199915E0,1.887999922E-1,-8.885299683E0
3.807400000E1,-6.010999680E-1,1.468799949E0,-5.989199638E0
3.809400000E1,4.163999856E-1,3.215999842E0,-3.803999901E0
3.811400000E1,1.689999938E0,3.292299986E0,-2.114099979E0
3.813400000E1,3.688099861E0,2.907399893E0,-9.425999522E-1
3.815400000E1,4.618899822E0,2.525799990E0,-3.638999760E-1
3.817400000E1,5.297499657E0,9.603999853E-1,1.380599976E0
3.819400000E1,5.037899971E0,-4.506999850E-1,2.261800051E0
3.821400000E1,4.119899750E0,-2.139499903E0,2.228899956E0
3.823400000E1,3.577499866E0,-2.916199923E0,1.228500009E0
3.825400000E1,4.169199944E0,-2.727399826E0,-1.045999974E-1
3.827400000E1,4.189599991E0,-9.653999805E-1,-7.349999994E-2
3.829400000E1,2.710500002E0,1.296800017E0,1.617999911E0
3.831400000E1,9.119999409E-2,2.752499819E0,3.855099916E0
3.833400000E1,-2.956699848E0,3.188199997E0,5.213699818E0
3.835400000E1,-5.556799889E0,3.569399834E0,6.204099655E0
3.837400000E1,-6.547499657E0,3.931199789E0,4.909999847E0
3.839400000E1,-3.559999943E0,3.305500031E0,4.012399673E0
3.841400000E1,-3.548799992E0,3.351899862E0,3.976499796E0
3.843400000E1,-5.806999683E0,3.493199825E0,9.749999642E-1
3.845400000E1,-2.748299837E0,1.850099921E0,-2.177500010E0
3.847400000E1,2.180999964E-1,9.438999891E-1,-7.218899727E0
3.849400000E1,4.770999849E-1,-5.999999866E-2,-9.147899628E0
3.851400000E1,-1.528999954E-1,-1.807399988E0,-4.599400043E0
3.853400000E1,-4.329499722E0,-1.156099916E0,-1.598500013E0
3.855400000E1,-4.623300076E0,-1.958699942E0,-1.618299961E0
3.857400000E1,-2.603799820E0,-1.974299908E0,-2.285500050E0
3.859400000E1,-1.111999974E-1,-2.298799992E0,-1.849499941E0
3.861400000E1,1.512699962E0,-2.070499897E0,-5.713999867E-1
3.863400000E1,3.307399988E0,-3.490999937E-1,2.518000007E-1
3.865400000E1,4.784499645E0,5.087000132E-1,2.481999993E-1
3.867400000E1,5.145400047E0,2.052999973E0,1.716699958E0
3.869400000E1,5.069099903E0,3.469199896E0,1.444299936E0
3.871400000E1,5.318999767E0,3.689299822E0,-4.142999947E-1
3.873400000E1,6.004299641E0,2.846999884E0,-1.202099919E0
3.875400000E1,5.453599930E0,1.202099919E0,-2.685000002E-1
3.877400000E1,2.789099932E0,9.979999661E-1,1.835999936E-1
3.879400000E1,1.379999965E-1,4.168999791E-1,1.127599955E0
3.881400000E1,-3.882900000E0,-1.971099973E0,2.307899952E0
3.883400000E1,-8.193799973E0,-4.393000126E0,4.267600060E0
3.885400000E1,-6.495299816E0,-9.070999622E-1,9.541799545E0
3.887400000E1,-2.634799957E0,1.231799960E0,9.803099632E0
3.889400000E1,-4.365399837E0,9.732999802E-1,6.136499882E0
3.891400000E1,-3.620299816E0,8.879999816E-2,1.727299929E0
3.893400000E1,-2.199599981E0,-1.571399927E0,-3.261600018E0
3.895400156E1,-2.078700066E0,-3.906199932E0,-3.916699886E0
3.898400000E1,-2.697000027E0,-1.576099992E0,-9.031499863E0
3.900400000E1,-1.921700001E0,8.810999990E-1,-9.101300240E0
3.902400000E1,4.698999822E-1,1.631399989E0,-5.997099876E0
3.904400000E1,1.789099932E0,3.091399908E0,-4.082099915E0
3.906400000E1,3.224799871E0,2.886099815E0,-2.010099888E0
3.908400000E1,4.885099888E0,2.828399897E0,-1.321499944E0
3.910400000E1,5.489899635E0,1.982599974E0,1.099099994E0
3.912400000E1,5.117799759E0,1.280399919E0,2.060099840E0
3.914400000E1,4.532700062E0,-2.656999826E-1,4.088999748E0
3.916400000E1,3.146099806E0,-1.697499990E0,3.063199997E0
3.918400000E1,2.829499960E0,-2.562000036E0,-1.368999928E-1
3.920400000E1,3.734499931E0,-1.825299978E0,-1.348199964E0
3.922400000E1,3.397300005E0,3.989999741E-2,-7.819999754E-2
3.924400000E1,1.394899964E0,1.607100010E0,2.472100019E0
3.926400000E1,-1.899299979E0,2.844099998E0,4.333899975E0
3.928400000E1,-4.922499657E0,3.571799994E0,5.462800026E0
3.930400000E1,-7.423099995E0,4.225899696E0,5.173500061E0
3.932400000E1,-4.966799736E0,3.694499969E0,3.404299974E0
3.934400000E1,-3.126999855E0,3.108099937E0,5.041699886E0
3.936400000E1,-5.002399921E0,1.859899998E0,4.172199726E0
3.938400000E1,-2.957199812E0,-3.831000030E-1,-6.628999710E-1
3.940400000E1,4.969999939E-2,-1.247099996E0,-5.779299736E0
3.942400000E1,-4.569999874E-1,-6.525999904E-1,-1.013999939E1
3.944400000E1,-7.430999875E-1,-1.977699995E0,-6.108900070E0
3.946400000E1,-3.349499941E0,-4.592999816E-1,-2.199399948E0
3.948400000E1,-3.515100002E0,-5.080000162E-1,-1.255800009E0
3.950400000E1,-1.831099987E0,-8.291999698E-1,-2.341899872E0
3.952400000E1,1.569999941E-2,-1.794799924E0,-1.624099970E0
3.954400000E1,7.985999584E-1,-8.161000013E-1,7.184999585E-1
3.956400000E1,1.786899924E0,5.163999796E-1,7.030000091E-1
3.958400000E1,3.517699957E0,1.920499921E0,1.470899940E0
3.960400000E1,4.894799709E0,3.072599888E0,1.891299963E0
3.962400000E1,5.828799725E0,3.811899900E0,2.690999806E-1
3.964400000E1,6.507099628E0,3.927599907E0,-2.023599863E0
3.966400000E1,7.355000019E0,2.866799831E0,-2.434000015E0
3.968400000E1,6.757299900E0,1.417999983E0,-1.868899941E0
3.970400000E1,4.575900078E0,3.138999939E-1,-1.129400015E0
3.972400000E1,5.701000094E-1,-4.818999767E-1,4.504999816E-1
3.974400000E1,-4.209099770E0,-2.688999891E0,2.906999826E0
3.976400000E1,-9.408399582E0,-5.136199951E0,3.252699852E0
3.978400000E1,-1.014559937E1,-2.780299902E0,8.720699310E0
3.980400000E1,-5.312599659E0,6.692000031E-1,1.235709953E1
3.982400000E1,-2.582299948E0,1.078699946E0,1.011009979E1
3.984400000E1,-3.148599863E0,-8.794999719E-1,3.886999846E0
3.986400000E1,-1.558300018E0,-1.914599895E0,-1.190500021E0
3.988400000E1,-8.531999588E-1,-3.734799862E0,-5.180999756E0
3.990400000E1,-1.650799990E0,-5.605000019E0,-5.945299625E0
3.992400000E1,-2.274899960E0,-4.473599911E0,-9.865900040E0
3.994400000E1,-1.175099969E0,-5.439000130E-1,-9.613800049E0
3.996400000E1,5.206999779E-1,8.513999581E-1,-7.063399792E0
3.998400000E1,1.407899976E0,2.223500013E0,-5.583199978E0
4.000400000E1,1.256099939E0,3.180199862E0,-1.374499917E0
4.002400000E1,2.875799894E0,3.476899862E0,-4.673999846E-1
4.004400000E1,3.990999937E0,3.088299990E0,2.053900003E0
4.006400000E1,4.614299774E0,2.066799879E0,3.480999947E0
4.008400000E1,4.382999897E0,8.542999625E-1,5.753900051E0
4.010400000E1,4.220299721E0,-8.562999964E-1,4.938699722E0
4.012400000E1,4.515899658E0,-2.164700031E0,6.577999592E-1
4.014400000E1,4.937399864E0,-2.204099894E0,-2.421000004E0
4.016400000E1,4.362999916E0,-1.332999915E-1,-1.379999995E0
4.018400000E1,2.048199892E0,1.770499945E0,1.697999954E0
4.020400000E1,-1.478999972E0,2.641299963E0,4.165100098E0
4.022400000E1,-5.264400005E0,3.603399992E0,5.171199799E0
4.024400000E1,-7.319900036E0,3.944599867E0,5.110399723E0
4.026400000E1,-7.099599838E0,3.598199844E0,2.610999823E0
4.028400000E1,-3.243000031E0,2.699100018E0,2.136899948E0
4.030400000E1,-2.737699986E0,2.770900011E0,4.859399796E0
4.032400000E1,-5.140599728E0,2.024199963E0,3.869199991E0
4.034400000E1,-2.454499960E0,-5.116999745E-1,-1.199999973E-1
4.036400000E1,1.216799974E0,-1.659099936E0,-4.614299774E0
4.038400000E1,1.810699940E0,-1.807999969E0,-8.098299980E0
4.040400000E1,-3.847999871E-1,-2.985699892E0,-4.996200085E0
4.042400000E1,-4.184199810E0,-2.970499992E0,-2.547799826E0
4.044400000E1,-5.188899994E0,-2.609299898E0,-1.953399897E0
4.046400000E1,-2.396999836E0,-2.404099941E0,-2.197900057E0
4.048400000E1,1.410399914E0,-2.204699993E0,-1.478299975E0
4.050400000E1,3.053099871E0,-1.230099916E0,-6.212999821E-1
4.052400000E1,3.575599909E0,3.962999880E-1,1.429999992E-2
4.054400000E1,4.277299881E0,1.546700001E0,1.198199987E0
4.056400000E1,4.444600105E0,2.968699932E0,1.161499977E0
4.058400000E1,4.573499680E0,4.212299824E0,8.130999804E-1
4.060400000E1,5.432099819E0,3.988099813E0,-4.438000023E-1
4.062400000E1,6.110899925E0,3.102799892E0,-9.740999937E-1
4.064400000E1,5.339600086E0,1.657899976E0,-8.901000023E-1
4.066400000E1,2.793099880E0,6.531999707E-1,-3.890999854E-1
4.068400000E1,-7.906999588E-1,3.086999953E-1,1.005800009E0
4.070400000E1,-4.600199699E0,-1.283999920E0,3.620199919E0
4.072400000E1,-8.874300003E0,-2.832399845E0,3.467599869E0
4.074400000E1,-7.722099781E0,-2.626799822E0,8.269599915E0
4.076400000E1,-4.229700089E0,9.893999696E-1,1.004259968E1
4.078400000E1,-1.913299918E0,7.015999556E-1,8.508299828E0
4.080400000E1,-1.936399937E0,-6.175000072E-1,3.546399832E0
4.082400000E1,-9.163999557E-1,-1.355599999E0,-2.249599934E0
4.084400312E1,-1.689999998E-1,-3.778999805E0,-5.280499935E0
4.087400156E1,-3.929899931E0,-5.451600075E0,-1.003240013E1
4.090400000E1,-1.480299950E0,-4.900000058E-3,-7.633599758E0
4.092400156E1,6.344000101E-1,1.367499948E0,-5.209399700E0
4.095400156E1,1.594299912E0,2.884399891E0,-3.298199892E0
4.098400000E1,3.560799837E0,3.599200010E0,-1.073300004E0
4.100400000E1,4.113399982E0,3.344799995E0,1.321599960E0
4.102400000E1,4.653899670E0,1.478899956E0,4.474400043E0
4.104400000E1,3.986599922E0,-1.828999966E-1,6.079699993E0
4.106400000E1,3.207999945E0,-2.499599934E0,4.895099640E0
4.108400000E1,4.270499706E0,-3.505599976E0,-7.044999599E-1
4.110400000E1,4.812699795E0,-2.243000031E0,-2.059099913E0
4.112400000E1,3.799299955E0,1.240999997E-1,2.261999995E-1
4.114400000E1,9.752999544E-1,2.080699921E0,3.080999851E0
4.116400000E1,-2.480499983E0,3.330099821E0,4.670599937E0
4.118400000E1,-5.769000053E0,3.998099804E0,5.604499817E0
4.120400000E1,-7.532499790E0,4.114399910E0,4.136799812E0
4.122400000E1,-4.173399925E0,2.867899895E0,1.991899967E0
4.124400000E1,-1.912299991E0,2.358399868E0,4.633699894E0
4.126400000E1,-4.766399860E0,1.661499977E0,6.152099609E0
4.128400000E1,-4.298500061E0,7.398999929E-1,8.737999797E-1
4.130400000E1,-1.462000012E-1,-1.180799961E0,-2.973999977E0
4.132400000E1,9.826999903E-1,-7.059999704E-1,-9.797299385E0
4.134400000E1,3.788000047E-1,-2.559999943E0,-7.660999775E0
4.136400000E1,-2.396299839E0,-2.616400003E0,-3.689299822E0
4.138400000E1,-3.998899937E0,-1.848299980E0,-1.064800024E0
4.140400000E1,-2.975999832E0,-2.139699936E0,-2.325799942E0
4.142400000E1,-6.547999978E-1,-1.594200015E0,-2.005800009E0
4.144400000E1,9.961999655E-1,-1.713599920E0,-9.492999911E-1
4.146400000E1,1.847499967E0,-2.073999941E-1,8.903999925E-1
4.148400000E1,2.700799942E0,8.155999780E-1,9.065999985E-1
4.150400156E1,3.845899820E0,1.717000008E0,1.313699961E0
4.153400000E1,4.737999916E0,3.773699999E0,8.503999710E-1
4.155400000E1,5.886399746E0,3.868899822E0,-9.817999601E-1
4.157400781E1,6.873199940E0,3.004599810E0,-1.851300001E0
4.160400000E1,5.031899929E0,9.396999478E-1,-1.442799926E0
4.162400156E1,1.653599977E0,8.456999660E-1,-6.751999855E-1
4.165400000E1,-3.387499809E0,-1.228099942E0,2.619400024E0
4.167400000E1,-8.150599480E0,-3.598099947E0,3.409799814E0
4.169400000E1,-7.910599709E0,-2.099799871E0,8.945899963E0
4.171400000E1,-3.920699835E0,9.540999532E-1,1.057740021E1
4.173400000E1,-3.850600004E0,2.987000048E-1,8.085199356E0
4.175400000E1,-3.202099800E0,-1.027199984E0,2.471400023E0
4.177400000E1,-1.245299935E0,-1.644199967E0,-3.237399817E0
4.179400000E1,-2.415999919E-1,-4.392899990E0,-5.028699875E0
4.181400000E1,-1.912299991E0,-5.716599941E0,-8.068099976E0
4.183400000E1,-3.013399839E0,-1.449000001E0,-9.562799454E0
4.185400000E1,-5.292999744E-1,1.061999947E-1,-6.571399689E0
4.187400000E1,4.056999981E-1,2.274299860E0,-5.339399815E0
4.189400000E1,1.497499943E0,2.944900036E0,-3.380399942E0
4.191400000E1,2.611899853E0,3.303099871E0,-1.419799924E0
4.193400156E1,3.572599888E0,3.579799891E0,-8.515999913E-1
4.195400156E1,4.254499912E0,3.024999857E0,1.890599966E0
4.198400000E1,3.715099812E0,1.568199992E0,4.549200058E0
4.200400000E1,3.554600000E0,-3.858000040E-1,3.912699938E0
4.202400000E1,4.048099995E0,-1.806100011E0,7.445999980E-1
4.204400000E1,4.772500038E0,-2.764499903E0,-1.232100010E0
4.206400000E1,3.969099998E0,-1.963799953E0,-7.943999767E-1
4.208400000E1,2.141499996E0,-4.658999741E-1,5.803999901E-1
4.210400000E1,-1.092499971E0,5.205999613E-1,3.167099953E0
4.212400000E1,-5.241899967E0,1.555799961E0,6.004600048E0
4.214400000E1,-8.225999832E0,4.103199959E0,5.260799885E0
4.216400000E1,-4.991799831E0,4.851599693E0,2.445299864E0
4.218400000E1,-1.812099934E0,4.105799675E0,3.851799965E0
4.220400000E1,-4.215699673E0,2.126800060E0,5.067100048E0
